File: testing/data/20240815_CP.DTA
EXPLAIN
TAG	CHRONOP
TITLE	LABEL	Chronopotentiometry Scan	Test &Identifier
DATE	LABEL	8/15/2024	Date
TIME	LABEL	9:52:07	Time
NOTES	NOTES	1	&Notes...

PSTAT	PSTAT	REF3000-48128	Potentiostat
IPRESTEP	QUANT	0.00000E+000	Pre-step Current (A)
TPRESTEP	QUANT	1.00000E+001	Pre-step Delay &Time (s)
ISTEP1	QUANT	-2.00000E-002	Step 1 Current (A)
TSTEP1	QUANT	1.80000E+003	Step 1 Time (s)
ISTEP2	QUANT	-1.28000E+000	Step 2 Current (A)
TSTEP2	QUANT	1.54800E+004	Step 2 Time (s)
SAMPLETIME	QUANT	5.00001E-001	Sa&mple Period (s)
VLIMITLOWER	QUANT	-1.00000E+001	Lower Limit &V (V)
VLIMITUPPER	QUANT	1.00000E+001	Upper Limit &V (V)
DECIMATE	TOGGLE	F	Decimate
AREA	QUANT	4.00000E+000	Electrode &Area (cm^2)
ELECTRODETYPE	SELECTOR	0	Electrode Type
STRIPPING	TOGGLE	F	Used for Stripping
EQDELAY	QUANT	0.00000E+000	Equil. &Time (s)
CONDIT	TWOPARAM	F	1.50000E+001	0.00000E+000	Conditionin&g	Time(s)	E(V)
DELAY	TWOPARAM	F	3.00000E+002	1.00000E-001	Init. De&lay	Time(s)	Stab.(mV/s)
SAMPLINGMODE	SELECTOR	1	Sampling &Mode
EOC	QUANT	0	Open Circuit (V)
PSTATMODEL	IQUANT	5	Pstat Model
PSTATSECTION	LABEL	REF3000-48128	Pstat Section
PSTATSERIALNO	LABEL	48128	Pstat Serial Number
CTRLMODE	IQUANT	0	Control Mode
ELECTROMETER	IQUANT	0	RE=0 or CS=1
IESTAB	IQUANT	0	I/E Stability
CASPEED	IQUANT	4	Control Amp Speed
CONVENTION	IQUANT	1	Current Convention
ICHRANGE	IQUANT	2	Ich Range
ICHRANGEMODE	TOGGLE	T	Ich Auto Range
ICHOFFSETENABLE	TOGGLE	F	Ich Offset Enable
ICHOFFSET	QUANT	0	Ich Offset (V)
ICHFILTER	IQUANT	3	Ich Filter
VCHRANGE	IQUANT	3	Vch Range
VCHRANGEMODE	TOGGLE	T	Vch Auto Range
VCHOFFSETENABLE	TOGGLE	F	Vch Offset Enable
VCHOFFSET	QUANT	0	Vch Offset (V)
VCHFILTER	IQUANT	3	Vch Filter
ACHRANGE	IQUANT	2	Ach Range
ACHOFFSETENABLE	TOGGLE	F	Ach Offset Enable
ACHOFFSET	QUANT	0	Ach Offset (V)
ACHFILTER	IQUANT	1	Ach Filter
IERANGELOWERLIMIT	IQUANT	2	I/E Range Lower Limit
IERANGEMODE	TOGGLE	F	I/E AutoRange
IERANGE	IQUANT	12	I/E Range
POSFEEDENABLE	TOGGLE	F	Positive Feedback IR Comp
POSFEEDRESISTANCE	QUANT	0	Positive Feedback Resistance (ohm)
ACHSELECT	IQUANT	0	Ach Select
SENSECABLEID	IQUANT	14	Sense Cable ID
PWRCABLEID	IQUANT	7	Power Cable ID
DCCALDATE	LABEL	5/21/2024	DC Calibration Date
ACCALDATE	LABEL	5/21/2024	AC Calibration Date
THERMOSELECT	IQUANT	1	Thermo Select
FRAMEWORKVERSION	LABEL	7.10.3	Framework Version
INSTRUMENTVERSION	LABEL	4.91	Instrument Version
COMMVERSION	LABEL	5.10	Communications Version
CPUPLDVERSION	LABEL	6.00	CPU PLD Version
CTRLPLDVERSION	LABEL	3.21	CTRL PLD Version
PSTATPLDVERSION	LABEL	0.00	PSTAT PLD Version
COMPLIANCEVOLTAGE	IQUANT	0	Compliance Voltage
CURVE	TABLE	34580
	Pt	T	Vf	Im	Vu	Sig	Ach	IERange	Over	Temp
	#	s	V vs. Ref.	A	V	V	V	#	bits	deg C
	0	-9.5	9.16037E-004	1.44753E-005	0.00000E+000	9.99570E-005	-8.88411E-004	12	...........	-327.56
	73	27	-1.20074E-001	-2.00453E-002	0.00000E+000	-2.00500E-002	-8.95411E-004	12	...........	-327.56
	146	63.5	-1.55438E-001	-2.00519E-002	0.00000E+000	-2.00500E-002	-8.91244E-004	12	...........	-327.56
	219	100	-1.67056E-001	-2.00450E-002	0.00000E+000	-2.00500E-002	-8.94844E-004	12	...........	-327.56
	292	136.5	-1.72925E-001	-2.00290E-002	0.00000E+000	-2.00500E-002	-8.98778E-004	12	...........	-327.56
	365	173	-1.75206E-001	-2.00434E-002	0.00000E+000	-2.00500E-002	-8.92377E-004	12	...........	-327.56
	438	209.5	-1.76118E-001	-2.00343E-002	0.00000E+000	-2.00500E-002	-8.94011E-004	12	...........	-327.56
	511	246	-1.77006E-001	-2.00343E-002	0.00000E+000	-2.00500E-002	-8.99711E-004	12	...........	-327.56
	584	282.5	-1.76917E-001	-2.00309E-002	0.00000E+000	-2.00500E-002	-8.98344E-004	12	...........	-327.56
	657	319	-1.75699E-001	-2.00357E-002	0.00000E+000	-2.00500E-002	-8.97844E-004	12	...........	-327.56
	730	355.5	-1.75898E-001	-2.00613E-002	0.00000E+000	-2.00500E-002	-9.02211E-004	12	...........	-327.56
	803	392	-1.75827E-001	-2.00327E-002	0.00000E+000	-2.00500E-002	-8.94311E-004	12	...........	-327.56
	876	428.5	-1.75960E-001	-2.00342E-002	0.00000E+000	-2.00500E-002	-8.93811E-004	12	...........	-327.56
	949	465	-1.76185E-001	-2.00578E-002	0.00000E+000	-2.00500E-002	-8.92644E-004	12	...........	-327.56
	1022	501.5	-1.76810E-001	-2.00631E-002	0.00000E+000	-2.00500E-002	-8.95278E-004	12	...........	-327.56
	1095	538	-1.77439E-001	-2.00537E-002	0.00000E+000	-2.00500E-002	-8.93244E-004	12	...........	-327.56
	1168	574.5	-1.77697E-001	-2.00666E-002	0.00000E+000	-2.00500E-002	-8.94344E-004	12	...........	-327.56
	1241	611	-1.78590E-001	-2.00619E-002	0.00000E+000	-2.00500E-002	-8.94511E-004	12	...........	-327.56
	1314	647.5	-1.80485E-001	-2.00587E-002	0.00000E+000	-2.00500E-002	-8.98311E-004	12	...........	-327.56
	1387	684	-1.81256E-001	-2.00551E-002	0.00000E+000	-2.00500E-002	-8.90111E-004	12	...........	-327.56
	1460	720.5	-1.81996E-001	-2.00691E-002	0.00000E+000	-2.00500E-002	-8.89044E-004	12	...........	-327.56
	1533	757	-1.82340E-001	-2.00585E-002	0.00000E+000	-2.00500E-002	-8.89611E-004	12	...........	-327.56
	1606	793.5	-1.82604E-001	-2.00727E-002	0.00000E+000	-2.00500E-002	-8.90678E-004	12	...........	-327.56
	1679	830	-1.83424E-001	-2.00597E-002	0.00000E+000	-2.00500E-002	-9.00411E-004	12	...........	-327.56
	1752	866.5	-1.84112E-001	-2.00770E-002	0.00000E+000	-2.00500E-002	-8.94277E-004	12	...........	-327.56
	1825	903	-1.85249E-001	-2.00781E-002	0.00000E+000	-2.00500E-002	-8.88277E-004	12	...........	-327.56
	1898	939.5	-1.86367E-001	-2.00674E-002	0.00000E+000	-2.00500E-002	-9.01411E-004	12	...........	-327.56
	1971	976	-1.86861E-001	-2.00626E-002	0.00000E+000	-2.00500E-002	-8.86877E-004	12	...........	-327.56
	2044	1012.5	-1.87085E-001	-2.00823E-002	0.00000E+000	-2.00500E-002	-8.88444E-004	12	...........	-327.56
	2117	1049	-1.88138E-001	-2.00749E-002	0.00000E+000	-2.00500E-002	-8.91678E-004	12	...........	-327.56
	2190	1085.5	-1.88851E-001	-2.00636E-002	0.00000E+000	-2.00500E-002	-8.87944E-004	12	...........	-327.56
	2263	1122	-1.89398E-001	-2.00603E-002	0.00000E+000	-2.00500E-002	-8.91111E-004	12	...........	-327.56
	2336	1158.5	-1.90088E-001	-2.00741E-002	0.00000E+000	-2.00500E-002	-8.86677E-004	12	...........	-327.56
	2409	1195	-1.90651E-001	-2.00758E-002	0.00000E+000	-2.00500E-002	-8.71144E-004	12	...........	-327.56
	2482	1231.5	-1.91301E-001	-2.00583E-002	0.00000E+000	-2.00500E-002	-8.82311E-004	12	...........	-327.56
	2555	1268	-1.92305E-001	-2.00629E-002	0.00000E+000	-2.00500E-002	-8.84511E-004	12	...........	-327.56
	2628	1304.5	-1.92774E-001	-2.00646E-002	0.00000E+000	-2.00500E-002	-8.82711E-004	12	...........	-327.56
	2701	1341	-1.93915E-001	-2.00693E-002	0.00000E+000	-2.00500E-002	-8.77344E-004	12	...........	-327.56
	2774	1377.5	-1.94728E-001	-2.00698E-002	0.00000E+000	-2.00500E-002	-8.80377E-004	12	...........	-327.56
	2847	1414	-1.95483E-001	-2.00612E-002	0.00000E+000	-2.00500E-002	-8.81811E-004	12	...........	-327.56
	2920	1450.5	-1.96140E-001	-2.00698E-002	0.00000E+000	-2.00500E-002	-8.81844E-004	12	...........	-327.56
	2993	1487	-1.96403E-001	-2.00703E-002	0.00000E+000	-2.00500E-002	-8.77144E-004	12	...........	-327.56
	3066	1523.5	-1.96775E-001	-2.00638E-002	0.00000E+000	-2.00500E-002	-8.73811E-004	12	...........	-327.56
	3139	1560	-1.97534E-001	-2.00754E-002	0.00000E+000	-2.00500E-002	-8.71811E-004	12	...........	-327.56
	3212	1596.5	-1.97732E-001	-2.00676E-002	0.00000E+000	-2.00500E-002	-8.77944E-004	12	...........	-327.56
	3285	1633	-1.98915E-001	-2.00704E-002	0.00000E+000	-2.00500E-002	-8.76844E-004	12	...........	-327.56
	3358	1669.5	-1.99684E-001	-2.00829E-002	0.00000E+000	-2.00500E-002	-8.72211E-004	12	...........	-327.56
	3431	1706	-2.00404E-001	-2.00818E-002	0.00000E+000	-2.00500E-002	-8.78111E-004	12	...........	-327.56
	3504	1742.5	-2.01323E-001	-2.00659E-002	0.00000E+000	-2.00500E-002	-8.74144E-004	12	...........	-327.56
	3577	1779	-2.02174E-001	-2.00775E-002	0.00000E+000	-2.00500E-002	-8.60378E-004	12	...........	-327.56
	3650	1815.5	-9.14957E-001	-1.28060E+000	0.00000E+000	-1.29010E+000	-8.55178E-004	12	...........	-327.56
	3723	1852	-1.02336E+000	-1.28063E+000	0.00000E+000	-1.29010E+000	-8.69344E-004	12	...........	-327.56
	3796	1888.5	-1.02880E+000	-1.28061E+000	0.00000E+000	-1.29010E+000	-8.65011E-004	12	...........	-327.56
	3869	1925	-1.03211E+000	-1.28064E+000	0.00000E+000	-1.29010E+000	-8.64977E-004	12	...........	-327.56
	3942	1961.5	-1.03482E+000	-1.28064E+000	0.00000E+000	-1.29010E+000	-8.62544E-004	12	...........	-327.56
	4015	1998	-1.03798E+000	-1.28064E+000	0.00000E+000	-1.29010E+000	-8.60244E-004	12	...........	-327.56
	4088	2034.5	-1.04698E+000	-1.28064E+000	0.00000E+000	-1.29010E+000	-8.64644E-004	12	...........	-327.56
	4161	2071	-1.02756E+000	-1.28064E+000	0.00000E+000	-1.29010E+000	-8.55311E-004	12	...........	-327.56
	4234	2107.5	-9.15339E-001	-1.28065E+000	0.00000E+000	-1.29010E+000	-8.60911E-004	12	...........	-327.56
	4307	2144	-9.30734E-001	-1.28066E+000	0.00000E+000	-1.29010E+000	-8.61978E-004	12	...........	-327.56
	4380	2180.5	-9.33628E-001	-1.28064E+000	0.00000E+000	-1.29010E+000	-8.60878E-004	12	...........	-327.56
	4453	2217	-9.24915E-001	-1.28067E+000	0.00000E+000	-1.29010E+000	-8.61811E-004	12	...........	-327.56
	4526	2253.5	-8.84493E-001	-1.28066E+000	0.00000E+000	-1.29010E+000	-8.58777E-004	12	...........	-327.56
	4599	2290	-8.69783E-001	-1.28066E+000	0.00000E+000	-1.29010E+000	-8.61377E-004	12	...........	-327.56
	4672	2326.5	-8.66082E-001	-1.28066E+000	0.00000E+000	-1.29010E+000	-8.60411E-004	12	...........	-327.56
	4745	2363	-8.72071E-001	-1.28066E+000	0.00000E+000	-1.29010E+000	-8.61078E-004	12	...........	-327.56
	4818	2399.5	-8.60066E-001	-1.28067E+000	0.00000E+000	-1.29010E+000	-8.56344E-004	12	...........	-327.56
	4891	2436	-8.61451E-001	-1.28066E+000	0.00000E+000	-1.29010E+000	-8.65977E-004	12	...........	-327.56
	4964	2472.5	-8.64361E-001	-1.28066E+000	0.00000E+000	-1.29010E+000	-8.62944E-004	12	...........	-327.56
	5037	2509	-8.54061E-001	-1.28066E+000	0.00000E+000	-1.29010E+000	-8.53877E-004	12	...........	-327.56
	5110	2545.5	-8.64772E-001	-1.28066E+000	0.00000E+000	-1.29010E+000	-8.55678E-004	12	...........	-327.56
	5183	2582	-8.68749E-001	-1.28066E+000	0.00000E+000	-1.29010E+000	-8.72144E-004	12	...........	-327.56
	5256	2618.5	-8.71424E-001	-1.28067E+000	0.00000E+000	-1.29010E+000	-8.70011E-004	12	...........	-327.56
	5329	2655	-8.74129E-001	-1.28065E+000	0.00000E+000	-1.29010E+000	-8.67077E-004	12	...........	-327.56
	5402	2691.5	-8.74378E-001	-1.28066E+000	0.00000E+000	-1.29010E+000	-8.67377E-004	12	...........	-327.56
	5475	2728	-8.74542E-001	-1.28067E+000	0.00000E+000	-1.29010E+000	-8.66211E-004	12	...........	-327.56
	5548	2764.5	-8.57686E-001	-1.28066E+000	0.00000E+000	-1.29010E+000	-8.61377E-004	12	...........	-327.56
	5621	2801	-8.56944E-001	-1.28066E+000	0.00000E+000	-1.29010E+000	-8.66511E-004	12	...........	-327.56
	5694	2837.5	-8.62240E-001	-1.28067E+000	0.00000E+000	-1.29010E+000	-8.67344E-004	12	...........	-327.56
	5767	2874	-8.67399E-001	-1.28067E+000	0.00000E+000	-1.29010E+000	-8.61244E-004	12	...........	-327.56
	5840	2910.5	-8.70912E-001	-1.28067E+000	0.00000E+000	-1.29010E+000	-8.64178E-004	12	...........	-327.56
	5913	2947	-8.73630E-001	-1.28067E+000	0.00000E+000	-1.29010E+000	-8.62444E-004	12	...........	-327.56
	5986	2983.5	-8.76655E-001	-1.28067E+000	0.00000E+000	-1.29010E+000	-8.57078E-004	12	...........	-327.56
	6059	3020	-8.83058E-001	-1.28067E+000	0.00000E+000	-1.29010E+000	-8.62578E-004	12	...........	-327.56
	6132	3056.5	-8.88171E-001	-1.28067E+000	0.00000E+000	-1.29010E+000	-8.54011E-004	12	...........	-327.56
	6205	3093	-8.85148E-001	-1.28067E+000	0.00000E+000	-1.29010E+000	-8.61911E-004	12	...........	-327.56
	6278	3129.5	-8.85881E-001	-1.28067E+000	0.00000E+000	-1.29010E+000	-8.59377E-004	12	...........	-327.56
	6351	3166	-8.89000E-001	-1.28065E+000	0.00000E+000	-1.29010E+000	-8.54711E-004	12	...........	-327.56
	6424	3202.5	-8.90486E-001	-1.28066E+000	0.00000E+000	-1.29010E+000	-8.56177E-004	12	...........	-327.56
	6497	3239	-8.90922E-001	-1.28067E+000	0.00000E+000	-1.29010E+000	-8.52611E-004	12	...........	-327.56
	6570	3275.5	-8.92203E-001	-1.28067E+000	0.00000E+000	-1.29010E+000	-8.54244E-004	12	...........	-327.56
	6643	3312	-8.94721E-001	-1.28066E+000	0.00000E+000	-1.29010E+000	-8.58711E-004	12	...........	-327.56
	6716	3348.5	-8.87551E-001	-1.28067E+000	0.00000E+000	-1.29010E+000	-8.55611E-004	12	...........	-327.56
	6789	3385	-8.89698E-001	-1.28067E+000	0.00000E+000	-1.29010E+000	-8.54811E-004	12	...........	-327.56
	6862	3421.5	-8.92971E-001	-1.28067E+000	0.00000E+000	-1.29010E+000	-8.55311E-004	12	...........	-327.56
	6935	3458	-8.96613E-001	-1.28066E+000	0.00000E+000	-1.29010E+000	-8.54311E-004	12	...........	-327.56
	7008	3494.5	-8.96457E-001	-1.28066E+000	0.00000E+000	-1.29010E+000	-8.56978E-004	12	...........	-327.56
	7081	3531	-8.91942E-001	-1.28067E+000	0.00000E+000	-1.29010E+000	-8.59178E-004	12	...........	-327.56
	7154	3567.5	-8.78575E-001	-1.28066E+000	0.00000E+000	-1.29010E+000	-8.59211E-004	12	...........	-327.56
	7227	3604	-8.89508E-001	-1.28067E+000	0.00000E+000	-1.29010E+000	-8.57711E-004	12	...........	-327.56
	7300	3640.5	-8.88459E-001	-1.28067E+000	0.00000E+000	-1.29010E+000	-8.50611E-004	12	...........	-327.56
	7373	3677	-8.91339E-001	-1.28066E+000	0.00000E+000	-1.29010E+000	-8.54211E-004	12	...........	-327.56
	7446	3713.5	-8.94851E-001	-1.28067E+000	0.00000E+000	-1.29010E+000	-8.56244E-004	12	...........	-327.56
	7519	3750	-8.98223E-001	-1.28066E+000	0.00000E+000	-1.29010E+000	-8.51411E-004	12	...........	-327.56
	7592	3786.5	-8.99162E-001	-1.28067E+000	0.00000E+000	-1.29010E+000	-8.52611E-004	12	...........	-327.56
	7665	3823	-9.01359E-001	-1.28065E+000	0.00000E+000	-1.29010E+000	-8.56611E-004	12	...........	-327.56
	7738	3859.5	-9.06102E-001	-1.28067E+000	0.00000E+000	-1.29010E+000	-8.54877E-004	12	...........	-327.56
	7811	3896	-9.09038E-001	-1.28067E+000	0.00000E+000	-1.29010E+000	-8.52344E-004	12	...........	-327.56
	7884	3932.5	-9.09342E-001	-1.28067E+000	0.00000E+000	-1.29010E+000	-8.52778E-004	12	...........	-327.56
	7957	3969	-9.08654E-001	-1.28067E+000	0.00000E+000	-1.29010E+000	-8.51577E-004	12	...........	-327.56
	8030	4005.5	-9.13244E-001	-1.28067E+000	0.00000E+000	-1.29010E+000	-8.47711E-004	12	...........	-327.56
	8103	4042	-9.16621E-001	-1.28067E+000	0.00000E+000	-1.29010E+000	-8.50244E-004	12	...........	-327.56
	8176	4078.5	-9.11617E-001	-1.28066E+000	0.00000E+000	-1.29010E+000	-8.52144E-004	12	...........	-327.56
	8249	4115	-9.13611E-001	-1.28067E+000	0.00000E+000	-1.29010E+000	-8.57477E-004	12	...........	-327.56
	8322	4151.5	-9.16778E-001	-1.28066E+000	0.00000E+000	-1.29010E+000	-8.57311E-004	12	...........	-327.56
	8395	4188	-9.19579E-001	-1.28066E+000	0.00000E+000	-1.29010E+000	-8.48378E-004	12	...........	-327.56
	8468	4224.5	-9.12646E-001	-1.28068E+000	0.00000E+000	-1.29010E+000	-8.57877E-004	12	...........	-327.56
	8541	4261	-9.16717E-001	-1.28067E+000	0.00000E+000	-1.29010E+000	-8.56677E-004	12	...........	-327.56
	8614	4297.5	-9.18720E-001	-1.28067E+000	0.00000E+000	-1.29010E+000	-8.53577E-004	12	...........	-327.56
	8687	4334	-9.20002E-001	-1.28067E+000	0.00000E+000	-1.29010E+000	-8.51077E-004	12	...........	-327.56
	8760	4370.5	-9.19703E-001	-1.28067E+000	0.00000E+000	-1.29010E+000	-8.49611E-004	12	...........	-327.56
	8833	4407	-9.18093E-001	-1.28067E+000	0.00000E+000	-1.29010E+000	-8.52677E-004	12	...........	-327.56
	8906	4443.5	-9.19632E-001	-1.28068E+000	0.00000E+000	-1.29010E+000	-8.51711E-004	12	...........	-327.56
	8979	4480	-9.23200E-001	-1.28068E+000	0.00000E+000	-1.29010E+000	-8.52044E-004	12	...........	-327.56
	9052	4516.5	-9.21220E-001	-1.28067E+000	0.00000E+000	-1.29010E+000	-8.57244E-004	12	...........	-327.56
	9125	4553	-9.19639E-001	-1.28067E+000	0.00000E+000	-1.29010E+000	-8.55277E-004	12	...........	-327.56
	9198	4589.5	-9.21250E-001	-1.28067E+000	0.00000E+000	-1.29010E+000	-8.53944E-004	12	...........	-327.56
	9271	4626	-9.21958E-001	-1.28068E+000	0.00000E+000	-1.29010E+000	-8.51744E-004	12	...........	-327.56
	9344	4662.5	-9.23414E-001	-1.28067E+000	0.00000E+000	-1.29010E+000	-8.57044E-004	12	...........	-327.56
	9417	4699	-9.12077E-001	-1.28067E+000	0.00000E+000	-1.29010E+000	-8.54244E-004	12	...........	-327.56
	9490	4735.5	-9.07871E-001	-1.28066E+000	0.00000E+000	-1.29010E+000	-8.54077E-004	12	...........	-327.56
	9563	4772	-9.07747E-001	-1.28069E+000	0.00000E+000	-1.29010E+000	-8.60511E-004	12	...........	-327.56
	9636	4808.5	-9.08061E-001	-1.28067E+000	0.00000E+000	-1.29010E+000	-8.58478E-004	12	...........	-327.56
	9709	4845	-9.12752E-001	-1.28068E+000	0.00000E+000	-1.29010E+000	-8.52811E-004	12	...........	-327.56
	9782	4881.5	-9.13834E-001	-1.28068E+000	0.00000E+000	-1.29010E+000	-8.52677E-004	12	...........	-327.56
	9855	4918	-9.16603E-001	-1.28068E+000	0.00000E+000	-1.29010E+000	-8.56677E-004	12	...........	-327.56
	9928	4954.5	-9.17824E-001	-1.28068E+000	0.00000E+000	-1.29010E+000	-8.49277E-004	12	...........	-327.56
	10001	4991	-9.23609E-001	-1.28067E+000	0.00000E+000	-1.29010E+000	-8.58611E-004	12	...........	-327.56
	10074	5027.5	-9.24584E-001	-1.28067E+000	0.00000E+000	-1.29010E+000	-8.59311E-004	12	...........	-327.56
	10147	5064	-9.26178E-001	-1.28067E+000	0.00000E+000	-1.29010E+000	-8.58544E-004	12	...........	-327.56
	10220	5100.5	-9.29193E-001	-1.28068E+000	0.00000E+000	-1.29010E+000	-8.52811E-004	12	...........	-327.56
	10293	5137	-9.31119E-001	-1.28068E+000	0.00000E+000	-1.29010E+000	-8.54777E-004	12	...........	-327.56
	10366	5173.5	-9.31636E-001	-1.28069E+000	0.00000E+000	-1.29010E+000	-8.60111E-004	12	...........	-327.56
	10439	5210	-9.33068E-001	-1.28068E+000	0.00000E+000	-1.29010E+000	-8.51444E-004	12	...........	-327.56
	10512	5246.5	-9.36808E-001	-1.28069E+000	0.00000E+000	-1.29010E+000	-8.54844E-004	12	...........	-327.56
	10585	5283	-9.37204E-001	-1.28069E+000	0.00000E+000	-1.29010E+000	-8.56011E-004	12	...........	-327.56
	10658	5319.5	-9.36672E-001	-1.28068E+000	0.00000E+000	-1.29010E+000	-8.58544E-004	12	...........	-327.56
	10731	5356	-9.40702E-001	-1.28068E+000	0.00000E+000	-1.29010E+000	-8.57377E-004	12	...........	-327.56
	10804	5392.5	-9.38324E-001	-1.28067E+000	0.00000E+000	-1.29010E+000	-8.53511E-004	12	...........	-327.56
	10877	5429	-9.33994E-001	-1.28068E+000	0.00000E+000	-1.29010E+000	-8.59778E-004	12	...........	-327.56
	10950	5465.5	-9.34113E-001	-1.28068E+000	0.00000E+000	-1.29010E+000	-8.66244E-004	12	...........	-327.56
	11023	5502	-9.35736E-001	-1.28069E+000	0.00000E+000	-1.29010E+000	-8.57811E-004	12	...........	-327.56
	11096	5538.5	-9.35384E-001	-1.28068E+000	0.00000E+000	-1.29010E+000	-8.61677E-004	12	...........	-327.56
	11169	5575	-9.35828E-001	-1.28069E+000	0.00000E+000	-1.29010E+000	-8.54178E-004	12	...........	-327.56
	11242	5611.5	-9.23617E-001	-1.28069E+000	0.00000E+000	-1.29010E+000	-8.58144E-004	12	...........	-327.56
	11315	5648	-9.30185E-001	-1.28069E+000	0.00000E+000	-1.29010E+000	-8.59411E-004	12	...........	-327.56
	11388	5684.5	-9.31868E-001	-1.28069E+000	0.00000E+000	-1.29010E+000	-8.60911E-004	12	...........	-327.56
	11461	5721	-9.33793E-001	-1.28070E+000	0.00000E+000	-1.29010E+000	-8.63144E-004	12	...........	-327.56
	11534	5757.5	-9.37461E-001	-1.28069E+000	0.00000E+000	-1.29010E+000	-8.59111E-004	12	...........	-327.56
	11607	5794	-9.36560E-001	-1.28069E+000	0.00000E+000	-1.29010E+000	-8.65411E-004	12	...........	-327.56
	11680	5830.5	-9.37895E-001	-1.28068E+000	0.00000E+000	-1.29010E+000	-8.56077E-004	12	...........	-327.56
	11753	5867	-9.36743E-001	-1.28069E+000	0.00000E+000	-1.29010E+000	-8.60477E-004	12	...........	-327.56
	11826	5903.5	-9.35275E-001	-1.28068E+000	0.00000E+000	-1.29010E+000	-8.56511E-004	12	...........	-327.56
	11899	5940	-9.30427E-001	-1.28069E+000	0.00000E+000	-1.29010E+000	-8.56111E-004	12	...........	-327.56
	11972	5976.5	-9.28962E-001	-1.28069E+000	0.00000E+000	-1.29010E+000	-8.47477E-004	12	...........	-327.56
	12045	6013	-9.20423E-001	-1.28070E+000	0.00000E+000	-1.29010E+000	-8.56944E-004	12	...........	-327.56
	12118	6049.5	-9.31206E-001	-1.28069E+000	0.00000E+000	-1.29010E+000	-8.52344E-004	12	...........	-327.56
	12191	6086	-9.29435E-001	-1.28069E+000	0.00000E+000	-1.29010E+000	-8.57144E-004	12	...........	-327.56
	12264	6122.5	-9.31687E-001	-1.28068E+000	0.00000E+000	-1.29010E+000	-8.53978E-004	12	...........	-327.56
	12337	6159	-9.36416E-001	-1.28068E+000	0.00000E+000	-1.29010E+000	-8.53144E-004	12	...........	-327.56
	12410	6195.5	-9.40798E-001	-1.28068E+000	0.00000E+000	-1.29010E+000	-8.50744E-004	12	...........	-327.56
	12483	6232	-9.36440E-001	-1.28069E+000	0.00000E+000	-1.29010E+000	-8.54544E-004	12	...........	-327.56
	12556	6268.5	-9.38091E-001	-1.28068E+000	0.00000E+000	-1.29010E+000	-8.50444E-004	12	...........	-327.56
	12629	6305	-9.35131E-001	-1.28068E+000	0.00000E+000	-1.29010E+000	-8.57778E-004	12	...........	-327.56
	12702	6341.5	-9.39018E-001	-1.28069E+000	0.00000E+000	-1.29010E+000	-8.54577E-004	12	...........	-327.56
	12775	6378	-9.39811E-001	-1.28069E+000	0.00000E+000	-1.29010E+000	-8.64378E-004	12	...........	-327.56
	12848	6414.5	-9.40726E-001	-1.28070E+000	0.00000E+000	-1.29010E+000	-8.56244E-004	12	...........	-327.56
	12921	6451	-9.43062E-001	-1.28069E+000	0.00000E+000	-1.29010E+000	-8.62444E-004	12	...........	-327.56
	12994	6487.5	-9.41828E-001	-1.28069E+000	0.00000E+000	-1.29010E+000	-8.56444E-004	12	...........	-327.56
	13067	6524	-9.43197E-001	-1.28068E+000	0.00000E+000	-1.29010E+000	-8.49211E-004	12	...........	-327.56
	13140	6560.5	-9.44262E-001	-1.28070E+000	0.00000E+000	-1.29010E+000	-8.53211E-004	12	...........	-327.56
	13213	6597	-9.42693E-001	-1.28069E+000	0.00000E+000	-1.29010E+000	-8.52878E-004	12	...........	-327.56
	13286	6633.5	-9.39420E-001	-1.28069E+000	0.00000E+000	-1.29010E+000	-8.57577E-004	12	...........	-327.56
	13359	6670	-9.40699E-001	-1.28069E+000	0.00000E+000	-1.29010E+000	-8.49611E-004	12	...........	-327.56
	13432	6706.5	-9.42698E-001	-1.28069E+000	0.00000E+000	-1.29010E+000	-8.58144E-004	12	...........	-327.56
	13505	6743	-9.43318E-001	-1.28068E+000	0.00000E+000	-1.29010E+000	-8.47677E-004	12	...........	-327.56
	13578	6779.5	-9.42799E-001	-1.28069E+000	0.00000E+000	-1.29010E+000	-8.48578E-004	12	...........	-327.56
	13651	6816	-9.47282E-001	-1.28070E+000	0.00000E+000	-1.29010E+000	-8.52778E-004	12	...........	-327.56
	13724	6852.5	-9.48449E-001	-1.28068E+000	0.00000E+000	-1.29010E+000	-8.48511E-004	12	...........	-327.56
	13797	6889	-9.41730E-001	-1.28069E+000	0.00000E+000	-1.29010E+000	-8.52311E-004	12	...........	-327.56
	13870	6925.5	-9.36089E-001	-1.28068E+000	0.00000E+000	-1.29010E+000	-8.55411E-004	12	...........	-327.56
	13943	6962	-9.39444E-001	-1.28070E+000	0.00000E+000	-1.29010E+000	-8.59377E-004	12	...........	-327.56
	14016	6998.5	-9.43764E-001	-1.28069E+000	0.00000E+000	-1.29010E+000	-8.48977E-004	12	...........	-327.56
	14089	7035	-9.43308E-001	-1.28068E+000	0.00000E+000	-1.29010E+000	-8.52711E-004	12	...........	-327.56
	14162	7071.5	-9.44441E-001	-1.28068E+000	0.00000E+000	-1.29010E+000	-8.51378E-004	12	...........	-327.56
	14235	7108	-9.43969E-001	-1.28070E+000	0.00000E+000	-1.29010E+000	-8.55711E-004	12	...........	-327.56
	14308	7144.5	-9.43083E-001	-1.28069E+000	0.00000E+000	-1.29010E+000	-8.59711E-004	12	...........	-327.56
	14381	7181	-9.44819E-001	-1.28069E+000	0.00000E+000	-1.29010E+000	-8.50611E-004	12	...........	-327.56
	14454	7217.5	-9.48908E-001	-1.28069E+000	0.00000E+000	-1.29010E+000	-8.54178E-004	12	...........	-327.56
	14527	7254	-9.44992E-001	-1.28070E+000	0.00000E+000	-1.29010E+000	-8.49044E-004	12	...........	-327.56
	14600	7290.5	-9.45838E-001	-1.28069E+000	0.00000E+000	-1.29010E+000	-8.52811E-004	12	...........	-327.56
	14673	7327	-9.46637E-001	-1.28069E+000	0.00000E+000	-1.29010E+000	-8.49544E-004	12	...........	-327.56
	14746	7363.5	-9.45017E-001	-1.28069E+000	0.00000E+000	-1.29010E+000	-8.49677E-004	12	...........	-327.56
	14819	7400	-9.42442E-001	-1.28069E+000	0.00000E+000	-1.29010E+000	-8.49011E-004	12	...........	-327.56
	14892	7436.5	-9.40290E-001	-1.28069E+000	0.00000E+000	-1.29010E+000	-8.48011E-004	12	...........	-327.56
	14965	7473	-9.40609E-001	-1.28069E+000	0.00000E+000	-1.29010E+000	-8.50111E-004	12	...........	-327.56
	15038	7509.5	-9.43125E-001	-1.28070E+000	0.00000E+000	-1.29010E+000	-8.54678E-004	12	...........	-327.56
	15111	7546	-9.43956E-001	-1.28069E+000	0.00000E+000	-1.29010E+000	-8.51944E-004	12	...........	-327.56
	15184	7582.5	-9.43761E-001	-1.28068E+000	0.00000E+000	-1.29010E+000	-8.54178E-004	12	...........	-327.56
	15257	7619	-9.42501E-001	-1.28068E+000	0.00000E+000	-1.29010E+000	-8.53178E-004	12	...........	-327.56
	15330	7655.5	-9.39915E-001	-1.28070E+000	0.00000E+000	-1.29010E+000	-8.55477E-004	12	...........	-327.56
	15403	7692	-9.37103E-001	-1.28069E+000	0.00000E+000	-1.29010E+000	-8.50211E-004	12	...........	-327.56
	15476	7728.5	-9.37657E-001	-1.28070E+000	0.00000E+000	-1.29010E+000	-8.48278E-004	12	...........	-327.56
	15549	7765	-9.35194E-001	-1.28070E+000	0.00000E+000	-1.29010E+000	-8.55144E-004	12	...........	-327.56
	15622	7801.5	-9.35083E-001	-1.28071E+000	0.00000E+000	-1.29010E+000	-8.55678E-004	12	...........	-327.56
	15695	7838	-9.37304E-001	-1.28071E+000	0.00000E+000	-1.29010E+000	-8.53044E-004	12	...........	-327.56
	15768	7874.5	-9.35750E-001	-1.28071E+000	0.00000E+000	-1.29010E+000	-8.49078E-004	12	...........	-327.56
	15841	7911	-9.35061E-001	-1.28070E+000	0.00000E+000	-1.29010E+000	-8.58711E-004	12	...........	-327.56
	15914	7947.5	-9.30543E-001	-1.28070E+000	0.00000E+000	-1.29010E+000	-8.52778E-004	12	...........	-327.56
	15987	7984	-9.27585E-001	-1.28070E+000	0.00000E+000	-1.29010E+000	-8.52378E-004	12	...........	-327.56
	16060	8020.5	-9.32813E-001	-1.28069E+000	0.00000E+000	-1.29010E+000	-8.56844E-004	12	...........	-327.56
	16133	8057	-9.33248E-001	-1.28070E+000	0.00000E+000	-1.29010E+000	-8.56444E-004	12	...........	-327.56
	16206	8093.5	-9.37545E-001	-1.28070E+000	0.00000E+000	-1.29010E+000	-8.57477E-004	12	...........	-327.56
	16279	8130	-9.36817E-001	-1.28069E+000	0.00000E+000	-1.29010E+000	-8.53744E-004	12	...........	-327.56
	16352	8166.5	-9.40256E-001	-1.28070E+000	0.00000E+000	-1.29010E+000	-8.58977E-004	12	...........	-327.56
	16425	8203	-9.34752E-001	-1.28071E+000	0.00000E+000	-1.29010E+000	-8.56911E-004	12	...........	-327.56
	16498	8239.5	-9.34192E-001	-1.28070E+000	0.00000E+000	-1.29010E+000	-8.55377E-004	12	...........	-327.56
	16571	8276	-9.36959E-001	-1.28069E+000	0.00000E+000	-1.29010E+000	-8.42411E-004	12	...........	-327.56
	16644	8312.5	-9.37513E-001	-1.28071E+000	0.00000E+000	-1.29010E+000	-8.53611E-004	12	...........	-327.56
	16717	8349	-9.36395E-001	-1.28069E+000	0.00000E+000	-1.29010E+000	-8.49244E-004	12	...........	-327.56
	16790	8385.5	-9.39255E-001	-1.28070E+000	0.00000E+000	-1.29010E+000	-8.54744E-004	12	...........	-327.56
	16863	8422	-9.33365E-001	-1.28069E+000	0.00000E+000	-1.29010E+000	-8.59511E-004	12	...........	-327.56
	16936	8458.5	-9.33603E-001	-1.28070E+000	0.00000E+000	-1.29010E+000	-8.61811E-004	12	...........	-327.56
	17009	8495	-9.33991E-001	-1.28070E+000	0.00000E+000	-1.29010E+000	-8.66377E-004	12	...........	-327.56
	17082	8531.5	-9.38310E-001	-1.28071E+000	0.00000E+000	-1.29010E+000	-8.60911E-004	12	...........	-327.56
	17155	8568	-9.37723E-001	-1.28070E+000	0.00000E+000	-1.29010E+000	-8.54311E-004	12	...........	-327.56
	17228	8604.5	-9.32875E-001	-1.28070E+000	0.00000E+000	-1.29010E+000	-8.59044E-004	12	...........	-327.56
	17301	8641	-9.31455E-001	-1.28070E+000	0.00000E+000	-1.29010E+000	-8.56011E-004	12	...........	-327.56
	17374	8677.5	-9.31609E-001	-1.28070E+000	0.00000E+000	-1.29010E+000	-8.51544E-004	12	...........	-327.56
	17447	8714	-9.30362E-001	-1.28070E+000	0.00000E+000	-1.29010E+000	-8.54277E-004	12	...........	-327.56
	17520	8750.5	-9.30759E-001	-1.28068E+000	0.00000E+000	-1.29010E+000	-8.56578E-004	12	...........	-327.56
	17593	8787	-9.33723E-001	-1.28071E+000	0.00000E+000	-1.29010E+000	-8.63878E-004	12	...........	-327.56
	17666	8823.5	-9.37883E-001	-1.28069E+000	0.00000E+000	-1.29010E+000	-8.55377E-004	12	...........	-327.56
	17739	8860	-9.40779E-001	-1.28069E+000	0.00000E+000	-1.29010E+000	-8.53411E-004	12	...........	-327.56
	17812	8896.5	-9.35575E-001	-1.28070E+000	0.00000E+000	-1.29010E+000	-8.58144E-004	12	...........	-327.56
	17885	8933	-9.40182E-001	-1.28070E+000	0.00000E+000	-1.29010E+000	-8.53377E-004	12	...........	-327.56
	17958	8969.5	-9.42519E-001	-1.28069E+000	0.00000E+000	-1.29010E+000	-8.55578E-004	12	...........	-327.56
	18031	9006	-9.26852E-001	-1.28070E+000	0.00000E+000	-1.29010E+000	-8.52578E-004	12	...........	-327.56
	18104	9042.5	-9.29305E-001	-1.28070E+000	0.00000E+000	-1.29010E+000	-8.59311E-004	12	...........	-327.56
	18177	9079	-9.30262E-001	-1.28069E+000	0.00000E+000	-1.29010E+000	-8.56444E-004	12	...........	-327.56
	18250	9115.5	-9.34116E-001	-1.28070E+000	0.00000E+000	-1.29010E+000	-8.54811E-004	12	...........	-327.56
	18323	9152	-9.18176E-001	-1.28070E+000	0.00000E+000	-1.29010E+000	-8.55544E-004	12	...........	-327.56
	18396	9188.5	-9.21970E-001	-1.28071E+000	0.00000E+000	-1.29010E+000	-8.51777E-004	12	...........	-327.56
	18469	9225	-9.25451E-001	-1.28070E+000	0.00000E+000	-1.29010E+000	-8.57611E-004	12	...........	-327.56
	18542	9261.5	-9.25541E-001	-1.28069E+000	0.00000E+000	-1.29010E+000	-8.56211E-004	12	...........	-327.56
	18615	9298	-9.24274E-001	-1.28068E+000	0.00000E+000	-1.29010E+000	-8.55044E-004	12	...........	-327.56
	18688	9334.5	-9.19537E-001	-1.28070E+000	0.00000E+000	-1.29010E+000	-8.45577E-004	12	...........	-327.56
	18761	9371	-9.16609E-001	-1.28068E+000	0.00000E+000	-1.29010E+000	-8.55844E-004	12	...........	-327.56
	18834	9407.5	-9.17338E-001	-1.28071E+000	0.00000E+000	-1.29010E+000	-8.54944E-004	12	...........	-327.56
	18907	9444	-9.17209E-001	-1.28070E+000	0.00000E+000	-1.29010E+000	-8.45544E-004	12	...........	-327.56
	18980	9480.5	-9.20134E-001	-1.28070E+000	0.00000E+000	-1.29010E+000	-8.50044E-004	12	...........	-327.56
	19053	9517	-9.17057E-001	-1.28072E+000	0.00000E+000	-1.29010E+000	-8.50878E-004	12	...........	-327.56
	19126	9553.5	-9.16534E-001	-1.28070E+000	0.00000E+000	-1.29010E+000	-8.48611E-004	12	...........	-327.56
	19199	9590	-9.18106E-001	-1.28070E+000	0.00000E+000	-1.29010E+000	-8.44811E-004	12	...........	-327.56
	19272	9626.5	-9.18323E-001	-1.28070E+000	0.00000E+000	-1.29010E+000	-8.54344E-004	12	...........	-327.56
	19345	9663	-9.21771E-001	-1.28071E+000	0.00000E+000	-1.29010E+000	-8.54344E-004	12	...........	-327.56
	19418	9699.5	-9.22206E-001	-1.28070E+000	0.00000E+000	-1.29010E+000	-8.53278E-004	12	...........	-327.56
	19491	9736	-9.23609E-001	-1.28071E+000	0.00000E+000	-1.29010E+000	-8.48578E-004	12	...........	-327.56
	19564	9772.5	-9.22183E-001	-1.28069E+000	0.00000E+000	-1.29010E+000	-8.55744E-004	12	...........	-327.56
	19637	9809	-9.22142E-001	-1.28071E+000	0.00000E+000	-1.29010E+000	-8.50377E-004	12	...........	-327.56
	19710	9845.5	-9.19099E-001	-1.28070E+000	0.00000E+000	-1.29010E+000	-8.50211E-004	12	...........	-327.56
	19783	9882	-9.21269E-001	-1.28070E+000	0.00000E+000	-1.29010E+000	-8.56444E-004	12	...........	-327.56
	19856	9918.5	-9.23864E-001	-1.28070E+000	0.00000E+000	-1.29010E+000	-8.59744E-004	12	...........	-327.56
	19929	9955	-9.25725E-001	-1.28069E+000	0.00000E+000	-1.29010E+000	-8.53311E-004	12	...........	-327.56
	20002	9991.5	-9.24770E-001	-1.28070E+000	0.00000E+000	-1.29010E+000	-8.48578E-004	12	...........	-327.56
	20075	10028	-9.23962E-001	-1.28071E+000	0.00000E+000	-1.29010E+000	-8.53444E-004	12	...........	-327.56
	20148	10064.5	-9.23290E-001	-1.28071E+000	0.00000E+000	-1.29010E+000	-8.47911E-004	12	...........	-327.56
	20221	10101	-9.17409E-001	-1.28069E+000	0.00000E+000	-1.29010E+000	-8.62978E-004	12	...........	-327.56
	20294	10137.5	-9.18204E-001	-1.28070E+000	0.00000E+000	-1.29010E+000	-8.57144E-004	12	...........	-327.56
	20367	10174	-9.22313E-001	-1.28071E+000	0.00000E+000	-1.29010E+000	-8.58144E-004	12	...........	-327.56
	20440	10210.5	-9.24209E-001	-1.28070E+000	0.00000E+000	-1.29010E+000	-8.58844E-004	12	...........	-327.56
	20513	10247	-9.24156E-001	-1.28071E+000	0.00000E+000	-1.29010E+000	-8.56544E-004	12	...........	-327.56
	20586	10283.5	-9.24490E-001	-1.28070E+000	0.00000E+000	-1.29010E+000	-8.51411E-004	12	...........	-327.56
	20659	10320	-9.21673E-001	-1.28070E+000	0.00000E+000	-1.29010E+000	-8.55811E-004	12	...........	-327.56
	20732	10356.5	-9.13509E-001	-1.28070E+000	0.00000E+000	-1.29010E+000	-8.53678E-004	12	...........	-327.56
	20805	10393	-9.10327E-001	-1.28071E+000	0.00000E+000	-1.29010E+000	-8.55078E-004	12	...........	-327.56
	20878	10429.5	-9.13220E-001	-1.28070E+000	0.00000E+000	-1.29010E+000	-8.48244E-004	12	...........	-327.56
	20951	10466	-9.14020E-001	-1.28070E+000	0.00000E+000	-1.29010E+000	-8.56544E-004	12	...........	-327.56
	21024	10502.5	-9.11075E-001	-1.28070E+000	0.00000E+000	-1.29010E+000	-8.57011E-004	12	...........	-327.56
	21097	10539	-9.13022E-001	-1.28071E+000	0.00000E+000	-1.29010E+000	-8.51744E-004	12	...........	-327.56
	21170	10575.5	-9.09875E-001	-1.28070E+000	0.00000E+000	-1.29010E+000	-8.51744E-004	12	...........	-327.56
	21243	10612	-9.20571E-001	-1.28070E+000	0.00000E+000	-1.29010E+000	-8.50911E-004	12	...........	-327.56
	21316	10648.5	-9.22532E-001	-1.28071E+000	0.00000E+000	-1.29010E+000	-8.43844E-004	12	...........	-327.56
	21389	10685	-9.12853E-001	-1.28071E+000	0.00000E+000	-1.29010E+000	-8.53078E-004	12	...........	-327.56
	21462	10721.5	-9.24960E-001	-1.28070E+000	0.00000E+000	-1.29010E+000	-8.50077E-004	12	...........	-327.56
	21535	10758	-9.16433E-001	-1.28071E+000	0.00000E+000	-1.29010E+000	-8.51311E-004	12	...........	-327.56
	21608	10794.5	-9.21060E-001	-1.28069E+000	0.00000E+000	-1.29010E+000	-8.46277E-004	12	...........	-327.56
	21681	10831	-9.24266E-001	-1.28071E+000	0.00000E+000	-1.29010E+000	-8.59878E-004	12	...........	-327.56
	21754	10867.5	-9.21305E-001	-1.28071E+000	0.00000E+000	-1.29010E+000	-8.49078E-004	12	...........	-327.56
	21827	10904	-9.22827E-001	-1.28071E+000	0.00000E+000	-1.29010E+000	-8.47544E-004	12	...........	-327.56
	21900	10940.5	-9.24303E-001	-1.28071E+000	0.00000E+000	-1.29010E+000	-8.50878E-004	12	...........	-327.56
	21973	10977	-9.27236E-001	-1.28071E+000	0.00000E+000	-1.29010E+000	-8.58311E-004	12	...........	-327.56
	22046	11013.5	-9.26405E-001	-1.28071E+000	0.00000E+000	-1.29010E+000	-8.45044E-004	12	...........	-327.56
	22119	11050	-9.31091E-001	-1.28072E+000	0.00000E+000	-1.29010E+000	-8.54478E-004	12	...........	-327.56
	22192	11086.5	-9.29733E-001	-1.28071E+000	0.00000E+000	-1.29010E+000	-8.51477E-004	12	...........	-327.56
	22265	11123	-9.32269E-001	-1.28072E+000	0.00000E+000	-1.29010E+000	-8.52711E-004	12	...........	-327.56
	22338	11159.5	-9.27936E-001	-1.28070E+000	0.00000E+000	-1.29010E+000	-8.48177E-004	12	...........	-327.56
	22411	11196	-9.31506E-001	-1.28072E+000	0.00000E+000	-1.29010E+000	-8.48877E-004	12	...........	-327.56
	22484	11232.5	-9.33942E-001	-1.28072E+000	0.00000E+000	-1.29010E+000	-8.50611E-004	12	...........	-327.56
	22557	11269	-9.35685E-001	-1.28070E+000	0.00000E+000	-1.29010E+000	-8.42777E-004	12	...........	-327.56
	22630	11305.5	-9.32750E-001	-1.28071E+000	0.00000E+000	-1.29010E+000	-8.49611E-004	12	...........	-327.56
	22703	11342	-9.29557E-001	-1.28072E+000	0.00000E+000	-1.29010E+000	-8.47111E-004	12	...........	-327.56
	22776	11378.5	-9.31905E-001	-1.28072E+000	0.00000E+000	-1.29010E+000	-8.51277E-004	12	...........	-327.56
	22849	11415	-9.28956E-001	-1.28073E+000	0.00000E+000	-1.29010E+000	-8.42744E-004	12	...........	-327.56
	22922	11451.5	-9.34050E-001	-1.28071E+000	0.00000E+000	-1.29010E+000	-8.53178E-004	12	...........	-327.56
	22995	11488	-9.24909E-001	-1.28071E+000	0.00000E+000	-1.29010E+000	-8.57911E-004	12	...........	-327.56
	23068	11524.5	-9.24003E-001	-1.28072E+000	0.00000E+000	-1.29010E+000	-8.52511E-004	12	...........	-327.56
	23141	11561	-9.13493E-001	-1.28071E+000	0.00000E+000	-1.29010E+000	-8.50844E-004	12	...........	-327.56
	23214	11597.5	-9.14797E-001	-1.28071E+000	0.00000E+000	-1.29010E+000	-8.48211E-004	12	...........	-327.56
	23287	11634	-9.17415E-001	-1.28072E+000	0.00000E+000	-1.29010E+000	-8.60411E-004	12	...........	-327.56
	23360	11670.5	-9.16353E-001	-1.28071E+000	0.00000E+000	-1.29010E+000	-8.55411E-004	12	...........	-327.56
	23433	11707	-9.15749E-001	-1.28072E+000	0.00000E+000	-1.29010E+000	-8.50377E-004	12	...........	-327.56
	23506	11743.5	-9.13264E-001	-1.28071E+000	0.00000E+000	-1.29010E+000	-8.48177E-004	12	...........	-327.56
	23579	11780	-9.18403E-001	-1.28072E+000	0.00000E+000	-1.29010E+000	-8.39811E-004	12	...........	-327.56
	23652	11816.5	-9.22022E-001	-1.28072E+000	0.00000E+000	-1.29010E+000	-8.54444E-004	12	...........	-327.56
	23725	11853	-9.12884E-001	-1.28072E+000	0.00000E+000	-1.29010E+000	-8.44644E-004	12	...........	-327.56
	23798	11889.5	-9.16306E-001	-1.28071E+000	0.00000E+000	-1.29010E+000	-8.52111E-004	12	...........	-327.56
	23871	11926	-9.17902E-001	-1.28070E+000	0.00000E+000	-1.29010E+000	-8.50344E-004	12	...........	-327.56
	23944	11962.5	-9.18281E-001	-1.28071E+000	0.00000E+000	-1.29010E+000	-8.57711E-004	12	...........	-327.56
	24017	11999	-9.21107E-001	-1.28071E+000	0.00000E+000	-1.29010E+000	-8.53377E-004	12	...........	-327.56
	24090	12035.5	-9.20554E-001	-1.28071E+000	0.00000E+000	-1.29010E+000	-8.49444E-004	12	...........	-327.56
	24163	12072	-9.21454E-001	-1.28071E+000	0.00000E+000	-1.29010E+000	-8.56411E-004	12	...........	-327.56
	24236	12108.5	-9.16964E-001	-1.28070E+000	0.00000E+000	-1.29010E+000	-8.52278E-004	12	...........	-327.56
	24309	12145	-9.19010E-001	-1.28071E+000	0.00000E+000	-1.29010E+000	-8.55211E-004	12	...........	-327.56
	24382	12181.5	-9.20776E-001	-1.28072E+000	0.00000E+000	-1.29010E+000	-8.50711E-004	12	...........	-327.56
	24455	12218	-9.24911E-001	-1.28071E+000	0.00000E+000	-1.29010E+000	-8.55411E-004	12	...........	-327.56
	24528	12254.5	-9.25007E-001	-1.28071E+000	0.00000E+000	-1.29010E+000	-8.54511E-004	12	...........	-327.56
	24601	12291	-9.24477E-001	-1.28072E+000	0.00000E+000	-1.29010E+000	-8.50844E-004	12	...........	-327.56
	24674	12327.5	-9.22645E-001	-1.28071E+000	0.00000E+000	-1.29010E+000	-8.50244E-004	12	...........	-327.56
	24747	12364	-9.23246E-001	-1.28071E+000	0.00000E+000	-1.29010E+000	-8.59477E-004	12	...........	-327.56
	24820	12400.5	-9.23498E-001	-1.28071E+000	0.00000E+000	-1.29010E+000	-8.51877E-004	12	...........	-327.56
	24893	12437	-9.23861E-001	-1.28071E+000	0.00000E+000	-1.29010E+000	-8.58577E-004	12	...........	-327.56
	24966	12473.5	-9.24530E-001	-1.28072E+000	0.00000E+000	-1.29010E+000	-8.45344E-004	12	...........	-327.56
	25039	12510	-9.30539E-001	-1.28071E+000	0.00000E+000	-1.29010E+000	-8.52111E-004	12	...........	-327.56
	25112	12546.5	-9.34919E-001	-1.28070E+000	0.00000E+000	-1.29010E+000	-8.49478E-004	12	...........	-327.56
	25185	12583	-9.34106E-001	-1.28071E+000	0.00000E+000	-1.29010E+000	-8.59911E-004	12	...........	-327.56
	25258	12619.5	-9.24401E-001	-1.28071E+000	0.00000E+000	-1.29010E+000	-8.51477E-004	12	...........	-327.56
	25331	12656	-9.27750E-001	-1.28071E+000	0.00000E+000	-1.29010E+000	-8.46911E-004	12	...........	-327.56
	25404	12692.5	-9.27112E-001	-1.28073E+000	0.00000E+000	-1.29010E+000	-8.53244E-004	12	...........	-327.56
	25477	12729	-9.33059E-001	-1.28073E+000	0.00000E+000	-1.29010E+000	-8.54144E-004	12	...........	-327.56
	25550	12765.5	-9.25332E-001	-1.28072E+000	0.00000E+000	-1.29010E+000	-8.50311E-004	12	...........	-327.56
	25623	12802	-9.27321E-001	-1.28073E+000	0.00000E+000	-1.29010E+000	-8.53811E-004	12	...........	-327.56
	25696	12838.5	-9.34176E-001	-1.28072E+000	0.00000E+000	-1.29010E+000	-8.49011E-004	12	...........	-327.56
	25769	12875	-9.30743E-001	-1.28072E+000	0.00000E+000	-1.29010E+000	-8.48311E-004	12	...........	-327.56
	25842	12911.5	-9.34046E-001	-1.28070E+000	0.00000E+000	-1.29010E+000	-8.46844E-004	12	...........	-327.56
	25915	12948	-9.34145E-001	-1.28072E+000	0.00000E+000	-1.29010E+000	-8.50911E-004	12	...........	-327.56
	25988	12984.5	-9.43775E-001	-1.28072E+000	0.00000E+000	-1.29010E+000	-8.54244E-004	12	...........	-327.56
	26061	13021	-9.38826E-001	-1.28072E+000	0.00000E+000	-1.29010E+000	-8.47044E-004	12	...........	-327.56
	26134	13057.5	-9.44901E-001	-1.28072E+000	0.00000E+000	-1.29010E+000	-8.51711E-004	12	...........	-327.56
	26207	13094	-9.47470E-001	-1.28072E+000	0.00000E+000	-1.29010E+000	-8.50844E-004	12	...........	-327.56
	26280	13130.5	-9.47208E-001	-1.28072E+000	0.00000E+000	-1.29010E+000	-8.51277E-004	12	...........	-327.56
	26353	13167	-9.49640E-001	-1.28071E+000	0.00000E+000	-1.29010E+000	-8.49078E-004	12	...........	-327.56
	26426	13203.5	-9.50458E-001	-1.28071E+000	0.00000E+000	-1.29010E+000	-8.43644E-004	12	...........	-327.56
	26499	13240	-9.47685E-001	-1.28071E+000	0.00000E+000	-1.29010E+000	-8.48044E-004	12	...........	-327.56
	26572	13276.5	-9.47161E-001	-1.28072E+000	0.00000E+000	-1.29010E+000	-8.49877E-004	12	...........	-327.56
	26645	13313	-9.35427E-001	-1.28074E+000	0.00000E+000	-1.29010E+000	-8.44711E-004	12	...........	-327.56
	26718	13349.5	-9.30572E-001	-1.28072E+000	0.00000E+000	-1.29010E+000	-8.52711E-004	12	...........	-327.56
	26791	13386	-9.26361E-001	-1.28071E+000	0.00000E+000	-1.29010E+000	-8.52411E-004	12	...........	-327.56
	26864	13422.5	-9.34141E-001	-1.28072E+000	0.00000E+000	-1.29010E+000	-8.53678E-004	12	...........	-327.56
	26937	13459	-9.35501E-001	-1.28072E+000	0.00000E+000	-1.29010E+000	-8.51277E-004	12	...........	-327.56
	27010	13495.5	-9.35004E-001	-1.28071E+000	0.00000E+000	-1.29010E+000	-8.51777E-004	12	...........	-327.56
	27083	13532	-9.38004E-001	-1.28071E+000	0.00000E+000	-1.29010E+000	-8.56544E-004	12	...........	-327.56
	27156	13568.5	-9.37742E-001	-1.28072E+000	0.00000E+000	-1.29010E+000	-8.50811E-004	12	...........	-327.56
	27229	13605	-9.36975E-001	-1.28072E+000	0.00000E+000	-1.29010E+000	-8.53944E-004	12	...........	-327.56
	27302	13641.5	-9.34486E-001	-1.28072E+000	0.00000E+000	-1.29010E+000	-8.48177E-004	12	...........	-327.56
	27375	13678	-9.36918E-001	-1.28072E+000	0.00000E+000	-1.29010E+000	-8.40744E-004	12	...........	-327.56
	27448	13714.5	-9.34109E-001	-1.28072E+000	0.00000E+000	-1.29010E+000	-8.53644E-004	12	...........	-327.56
	27521	13751	-9.29006E-001	-1.28073E+000	0.00000E+000	-1.29010E+000	-8.49511E-004	12	...........	-327.56
	27594	13787.5	-9.32931E-001	-1.28072E+000	0.00000E+000	-1.29010E+000	-8.55844E-004	12	...........	-327.56
	27667	13824	-9.29211E-001	-1.28072E+000	0.00000E+000	-1.29010E+000	-8.44244E-004	12	...........	-327.56
	27740	13860.5	-9.27953E-001	-1.28072E+000	0.00000E+000	-1.29010E+000	-8.47077E-004	12	...........	-327.56
	27813	13897	-9.27755E-001	-1.28072E+000	0.00000E+000	-1.29010E+000	-8.45077E-004	12	...........	-327.56
	27886	13933.5	-9.28751E-001	-1.28071E+000	0.00000E+000	-1.29010E+000	-8.53477E-004	12	...........	-327.56
	27959	13970	-9.30145E-001	-1.28072E+000	0.00000E+000	-1.29010E+000	-8.50444E-004	12	...........	-327.56
	28032	14006.5	-9.31737E-001	-1.28071E+000	0.00000E+000	-1.29010E+000	-8.46844E-004	12	...........	-327.56
	28105	14043	-9.30734E-001	-1.28073E+000	0.00000E+000	-1.29010E+000	-8.49078E-004	12	...........	-327.56
	28178	14079.5	-9.33451E-001	-1.28072E+000	0.00000E+000	-1.29010E+000	-8.56011E-004	12	...........	-327.56
	28251	14116	-9.35668E-001	-1.28070E+000	0.00000E+000	-1.29010E+000	-8.50277E-004	12	...........	-327.56
	28324	14152.5	-9.31864E-001	-1.28072E+000	0.00000E+000	-1.29010E+000	-8.46711E-004	12	...........	-327.56
	28397	14189	-9.29031E-001	-1.28072E+000	0.00000E+000	-1.29010E+000	-8.44444E-004	12	...........	-327.56
	28470	14225.5	-9.28400E-001	-1.28072E+000	0.00000E+000	-1.29010E+000	-8.48678E-004	12	...........	-327.56
	28543	14262	-9.26909E-001	-1.28071E+000	0.00000E+000	-1.29010E+000	-8.46744E-004	12	...........	-327.56
	28616	14298.5	-9.24017E-001	-1.28073E+000	0.00000E+000	-1.29010E+000	-8.40644E-004	12	...........	-327.56
	28689	14335	-9.24710E-001	-1.28072E+000	0.00000E+000	-1.29010E+000	-8.45811E-004	12	...........	-327.56
	28762	14371.5	-9.23811E-001	-1.28072E+000	0.00000E+000	-1.29010E+000	-8.41877E-004	12	...........	-327.56
	28835	14408	-9.15963E-001	-1.28072E+000	0.00000E+000	-1.29010E+000	-8.51511E-004	12	...........	-327.56
	28908	14444.5	-9.18777E-001	-1.28072E+000	0.00000E+000	-1.29010E+000	-8.45778E-004	12	...........	-327.56
	28981	14481	-9.23715E-001	-1.28072E+000	0.00000E+000	-1.29010E+000	-8.43878E-004	12	...........	-327.56
	29054	14517.5	-9.24042E-001	-1.28073E+000	0.00000E+000	-1.29010E+000	-8.46144E-004	12	...........	-327.56
	29127	14554	-9.21880E-001	-1.28073E+000	0.00000E+000	-1.29010E+000	-8.38177E-004	12	...........	-327.56
	29200	14590.5	-9.19228E-001	-1.28072E+000	0.00000E+000	-1.29010E+000	-8.40211E-004	12	...........	-327.56
	29273	14627	-9.12206E-001	-1.28072E+000	0.00000E+000	-1.29010E+000	-8.42211E-004	12	...........	-327.56
	29346	14663.5	-9.13765E-001	-1.28073E+000	0.00000E+000	-1.29010E+000	-8.43344E-004	12	...........	-327.56
	29419	14700	-9.14397E-001	-1.28072E+000	0.00000E+000	-1.29010E+000	-8.48011E-004	12	...........	-327.56
	29492	14736.5	-9.06167E-001	-1.28073E+000	0.00000E+000	-1.29010E+000	-8.47244E-004	12	...........	-327.56
	29565	14773	-9.08399E-001	-1.28071E+000	0.00000E+000	-1.29010E+000	-8.52144E-004	12	...........	-327.56
	29638	14809.5	-9.08924E-001	-1.28071E+000	0.00000E+000	-1.29010E+000	-8.43344E-004	12	...........	-327.56
	29711	14846	-9.11760E-001	-1.28072E+000	0.00000E+000	-1.29010E+000	-8.45144E-004	12	...........	-327.56
	29784	14882.5	-9.10183E-001	-1.28071E+000	0.00000E+000	-1.29010E+000	-8.41644E-004	12	...........	-327.56
	29857	14919	-9.12837E-001	-1.28073E+000	0.00000E+000	-1.29010E+000	-8.37311E-004	12	...........	-327.56
	29930	14955.5	-9.21578E-001	-1.28072E+000	0.00000E+000	-1.29010E+000	-8.46078E-004	12	...........	-327.56
	30003	14992	-9.18020E-001	-1.28071E+000	0.00000E+000	-1.29010E+000	-8.38611E-004	12	...........	-327.56
	30076	15028.5	-9.17247E-001	-1.28074E+000	0.00000E+000	-1.29010E+000	-8.50044E-004	12	...........	-327.56
	30149	15065	-9.19018E-001	-1.28071E+000	0.00000E+000	-1.29010E+000	-8.52778E-004	12	...........	-327.56
	30222	15101.5	-9.18774E-001	-1.28073E+000	0.00000E+000	-1.29010E+000	-8.42678E-004	12	...........	-327.56
	30295	15138	-9.18433E-001	-1.28072E+000	0.00000E+000	-1.29010E+000	-8.48044E-004	12	...........	-327.56
	30368	15174.5	-9.16851E-001	-1.28071E+000	0.00000E+000	-1.29010E+000	-8.44177E-004	12	...........	-327.56
	30441	15211	-9.08899E-001	-1.28073E+000	0.00000E+000	-1.29010E+000	-8.50144E-004	12	...........	-327.56
	30514	15247.5	-9.10764E-001	-1.28072E+000	0.00000E+000	-1.29010E+000	-8.48244E-004	12	...........	-327.56
	30587	15284	-9.13114E-001	-1.28072E+000	0.00000E+000	-1.29010E+000	-8.41811E-004	12	...........	-327.56
	30660	15320.5	-9.14970E-001	-1.28071E+000	0.00000E+000	-1.29010E+000	-8.49478E-004	12	...........	-327.56
	30733	15357	-9.17335E-001	-1.28072E+000	0.00000E+000	-1.29010E+000	-8.44411E-004	12	...........	-327.56
	30806	15393.5	-9.17757E-001	-1.28072E+000	0.00000E+000	-1.29010E+000	-8.48177E-004	12	...........	-327.56
	30879	15430	-9.19193E-001	-1.28073E+000	0.00000E+000	-1.29010E+000	-8.43744E-004	12	...........	-327.56
	30952	15466.5	-9.15788E-001	-1.28073E+000	0.00000E+000	-1.29010E+000	-8.45411E-004	12	...........	-327.56
	31025	15503	-9.17021E-001	-1.28072E+000	0.00000E+000	-1.29010E+000	-8.49811E-004	12	...........	-327.56
	31098	15539.5	-9.13847E-001	-1.28073E+000	0.00000E+000	-1.29010E+000	-8.41044E-004	12	...........	-327.56
	31171	15576	-9.16392E-001	-1.28073E+000	0.00000E+000	-1.29010E+000	-8.44344E-004	12	...........	-327.56
	31244	15612.5	-9.18959E-001	-1.28073E+000	0.00000E+000	-1.29010E+000	-8.46078E-004	12	...........	-327.56
	31317	15649	-9.17486E-001	-1.28072E+000	0.00000E+000	-1.29010E+000	-8.54144E-004	12	...........	-327.56
	31390	15685.5	-9.18432E-001	-1.28071E+000	0.00000E+000	-1.29010E+000	-8.45511E-004	12	...........	-327.56
	31463	15722	-9.19582E-001	-1.28071E+000	0.00000E+000	-1.29010E+000	-8.44877E-004	12	...........	-327.56
	31536	15758.5	-9.20097E-001	-1.28072E+000	0.00000E+000	-1.29010E+000	-8.44444E-004	12	...........	-327.56
	31609	15795	-9.20959E-001	-1.28073E+000	0.00000E+000	-1.29010E+000	-8.48911E-004	12	...........	-327.56
	31682	15831.5	-9.25582E-001	-1.28073E+000	0.00000E+000	-1.29010E+000	-8.42377E-004	12	...........	-327.56
	31755	15868	-9.33221E-001	-1.28073E+000	0.00000E+000	-1.29010E+000	-8.50211E-004	12	...........	-327.56
	31828	15904.5	-9.32827E-001	-1.28072E+000	0.00000E+000	-1.29010E+000	-8.54044E-004	12	...........	-327.56
	31901	15941	-9.28608E-001	-1.28073E+000	0.00000E+000	-1.29010E+000	-8.47244E-004	12	...........	-327.56
	31974	15977.5	-9.25215E-001	-1.28072E+000	0.00000E+000	-1.29010E+000	-8.42244E-004	12	...........	-327.56
	32047	16014	-9.27059E-001	-1.28073E+000	0.00000E+000	-1.29010E+000	-8.51811E-004	12	...........	-327.56
	32120	16050.5	-9.26975E-001	-1.28073E+000	0.00000E+000	-1.29010E+000	-8.50511E-004	12	...........	-327.56
	32193	16087	-9.25559E-001	-1.28072E+000	0.00000E+000	-1.29010E+000	-8.42844E-004	12	...........	-327.56
	32266	16123.5	-9.22276E-001	-1.28073E+000	0.00000E+000	-1.29010E+000	-8.44244E-004	12	...........	-327.56
	32339	16160	-9.23476E-001	-1.28073E+000	0.00000E+000	-1.29010E+000	-8.43044E-004	12	...........	-327.56
	32412	16196.5	-9.25287E-001	-1.28073E+000	0.00000E+000	-1.29010E+000	-8.46277E-004	12	...........	-327.56
	32485	16233	-9.26652E-001	-1.28072E+000	0.00000E+000	-1.29010E+000	-8.43777E-004	12	...........	-327.56
	32558	16269.5	-9.30510E-001	-1.28073E+000	0.00000E+000	-1.29010E+000	-8.51977E-004	12	...........	-327.56
	32631	16306	-9.33847E-001	-1.28073E+000	0.00000E+000	-1.29010E+000	-8.45544E-004	12	...........	-327.56
	32704	16342.5	-9.35203E-001	-1.28073E+000	0.00000E+000	-1.29010E+000	-8.44877E-004	12	...........	-327.56
	32777	16379	-9.34692E-001	-1.28072E+000	0.00000E+000	-1.29010E+000	-8.49044E-004	12	...........	-327.56
	32850	16415.5	-9.31649E-001	-1.28073E+000	0.00000E+000	-1.29010E+000	-8.48044E-004	12	...........	-327.56
	32923	16452	-9.25727E-001	-1.28073E+000	0.00000E+000	-1.29010E+000	-8.43277E-004	12	...........	-327.56
	32996	16488.5	-9.28576E-001	-1.28073E+000	0.00000E+000	-1.29010E+000	-8.40011E-004	12	...........	-327.56
	33069	16525	-9.34216E-001	-1.28074E+000	0.00000E+000	-1.29010E+000	-8.48311E-004	12	...........	-327.56
	33142	16561.5	-9.35498E-001	-1.28073E+000	0.00000E+000	-1.29010E+000	-8.46344E-004	12	...........	-327.56
	33215	16598	-9.34177E-001	-1.28075E+000	0.00000E+000	-1.29010E+000	-8.39011E-004	12	...........	-327.56
	33288	16634.5	-9.36883E-001	-1.28073E+000	0.00000E+000	-1.29010E+000	-8.39878E-004	12	...........	-327.56
	33361	16671	-9.38175E-001	-1.28073E+000	0.00000E+000	-1.29010E+000	-8.38511E-004	12	...........	-327.56
	33434	16707.5	-9.36575E-001	-1.28073E+000	0.00000E+000	-1.29010E+000	-8.48877E-004	12	...........	-327.56
	33507	16744	-9.33701E-001	-1.28073E+000	0.00000E+000	-1.29010E+000	-8.49111E-004	12	...........	-327.56
	33580	16780.5	-9.28399E-001	-1.28073E+000	0.00000E+000	-1.29010E+000	-8.41711E-004	12	...........	-327.56
	33653	16817	-9.28401E-001	-1.28073E+000	0.00000E+000	-1.29010E+000	-8.42711E-004	12	...........	-327.56
	33726	16853.5	-9.27979E-001	-1.28072E+000	0.00000E+000	-1.29010E+000	-8.47477E-004	12	...........	-327.56
	33799	16890	-9.27315E-001	-1.28074E+000	0.00000E+000	-1.29010E+000	-8.44978E-004	12	...........	-327.56
	33872	16926.5	-9.19418E-001	-1.28073E+000	0.00000E+000	-1.29010E+000	-8.37344E-004	12	...........	-327.56
	33945	16963	-9.15938E-001	-1.28073E+000	0.00000E+000	-1.29010E+000	-8.36344E-004	12	...........	-327.56
	34018	16999.5	-9.16771E-001	-1.28073E+000	0.00000E+000	-1.29010E+000	-8.42344E-004	12	...........	-327.56
	34091	17036	-9.15335E-001	-1.28073E+000	0.00000E+000	-1.29010E+000	-8.31478E-004	12	...........	-327.56
	34164	17072.5	-9.19641E-001	-1.28073E+000	0.00000E+000	-1.29010E+000	-8.34611E-004	12	...........	-327.56
	34237	17109	-9.18430E-001	-1.28073E+000	0.00000E+000	-1.29010E+000	-8.43311E-004	12	...........	-327.56
	34310	17145.5	-9.16323E-001	-1.28073E+000	0.00000E+000	-1.29010E+000	-8.38044E-004	12	...........	-327.56
	34383	17182	-9.19387E-001	-1.28073E+000	0.00000E+000	-1.29010E+000	-8.43777E-004	12	...........	-327.56
	34456	17218.5	-9.24559E-001	-1.28074E+000	0.00000E+000	-1.29010E+000	-8.38144E-004	12	...........	-327.56
	34529	17255	-9.15347E-001	-1.28073E+000	0.00000E+000	-1.29010E+000	-8.41744E-004	12	...........	-327.56
	34579	17280	-9.17060E-001	-1.28074E+000	0.00000E+000	-1.29010E+000	-8.33711E-004	12	...........	-327.56