File: testing/data/240902_20_MCL13_cspWE_CV2_750C_CO2.DTA
EXPLAIN
TAG	CV
TITLE	LABEL	Cyclic Voltammetry	Test Identifier
DATE	LABEL	9/3/2024	Date
TIME	LABEL	19:29:48	Time
NOTES	NOTES	5	Notes...
	cswWE - carbon steel wire
cspWE - carbon steel plate 2x2 tapered

Carbon steel plate counter electrode
Carbon steel wire reference electrode
PSTAT	PSTAT	REF3000-48128	Potentiostat
VINIT	POTEN	0.00000E+000	T	Initial E (V)
VLIMIT1	POTEN	1.70000E+000	F	Scan Limit 1 (V)
VLIMIT2	POTEN	-8.00000E-001	F	Scan Limit 2 (V)
VFINAL	POTEN	1.70000E+000	F	Final E (V)
SCANRATE	QUANT	2.00000E+000	Scan Rate (mV/s)
STEPSIZE	QUANT	1.00000E+000	Step Size (mV)
CYCLES	IQUANT	2	Cycles (#)
IMODE	SELECTOR	0	I/E Range Mode
IRANGE	QUANT	3.00000E-001	Max Current (mA)
AREA	QUANT	1.00000E+000	Sample Area (cm^2)
EQDELAY	QUANT	0.00000E+000	Equil. Time (s)
IRCOMP	SELECTOR	0	IRComp
PFCOR	QUANT	5.00000E+001	PF Corr. (ohm)
SAMPLINGMODE	SELECTOR	1	Sampling Mode
EOC	QUANT	0.5101995	Open Circuit (V)
ELECTRODETYPE	SELECTOR	0	Electrode Type
STRIPPING	TOGGLE	F	Used for Stripping
SEQUENCER	TOGGLE	TRUE	Run as Sequence
PSTATMODEL	IQUANT	5	Pstat Model
PSTATSECTION	LABEL	REF3000-48128	Pstat Section
PSTATSERIALNO	LABEL	48128	Pstat Serial Number
CTRLMODE	IQUANT	1	Control Mode
ELECTROMETER	IQUANT	0	RE=0 or CS=1
IESTAB	IQUANT	2	I/E Stability
CASPEED	IQUANT	4	Control Amp Speed
CONVENTION	IQUANT	1	Current Convention
ICHRANGE	IQUANT	2	Ich Range
ICHRANGEMODE	TOGGLE	F	Ich Auto Range
ICHOFFSETENABLE	TOGGLE	F	Ich Offset Enable
ICHOFFSET	QUANT	0	Ich Offset (V)
ICHFILTER	IQUANT	3	Ich Filter
VCHRANGE	IQUANT	2	Vch Range
VCHRANGEMODE	TOGGLE	F	Vch Auto Range
VCHOFFSETENABLE	TOGGLE	F	Vch Offset Enable
VCHOFFSET	QUANT	0	Vch Offset (V)
VCHFILTER	IQUANT	3	Vch Filter
ACHRANGE	IQUANT	2	Ach Range
ACHOFFSETENABLE	TOGGLE	F	Ach Offset Enable
ACHOFFSET	QUANT	0	Ach Offset (V)
ACHFILTER	IQUANT	1	Ach Filter
IERANGELOWERLIMIT	IQUANT	2	I/E Range Lower Limit
IERANGEMODE	TOGGLE	T	I/E AutoRange
IERANGE	IQUANT	9	I/E Range
POSFEEDENABLE	TOGGLE	F	Positive Feedback IR Comp
POSFEEDRESISTANCE	QUANT	0	Positive Feedback Resistance (ohm)
ACHSELECT	IQUANT	4	Ach Select
SENSECABLEID	IQUANT	14	Sense Cable ID
PWRCABLEID	IQUANT	7	Power Cable ID
DCCALDATE	LABEL	8/16/2024	DC Calibration Date
ACCALDATE	LABEL	8/16/2024	AC Calibration Date
THERMOSELECT	IQUANT	1	Thermo Select
FRAMEWORKVERSION	LABEL	7.10.3	Framework Version
INSTRUMENTVERSION	LABEL	4.91	Instrument Version
COMMVERSION	LABEL	5.10	Communications Version
CPUPLDVERSION	LABEL	6.00	CPU PLD Version
CTRLPLDVERSION	LABEL	3.21	CTRL PLD Version
PSTATPLDVERSION	LABEL	0.00	PSTAT PLD Version
COMPLIANCEVOLTAGE	IQUANT	0	Compliance Voltage
CURVE1	TABLE
	Pt	T	Vf	Im	Vu	Sig	Ach	IERange	Over	Temp
	#	s	V vs. Ref.	A	V	V	V	#	bits	deg C
	0	0.5	5.09435E-001	1.93137E-003	0.00000E+000	5.10200E-001	-1.02255E-004	9	...........	-327.56
	8	4.5	5.17594E-001	5.58408E-003	0.00000E+000	5.18200E-001	-1.00788E-004	10	...........	-327.56
	16	8.5	5.25377E-001	1.46478E-002	0.00000E+000	5.26200E-001	-1.00355E-004	10	...........	-327.56
	24	12.5	5.33338E-001	2.12131E-002	0.00000E+000	5.34200E-001	-1.02888E-004	10	...........	-327.56
	32	16.5	5.41324E-001	2.41797E-002	0.00000E+000	5.42200E-001	-9.75548E-005	10	...........	-327.56
	40	20.5	5.49587E-001	2.79463E-002	0.00000E+000	5.50200E-001	-1.03055E-004	11	...........	-327.56
	48	24.5	5.57532E-001	3.07375E-002	0.00000E+000	5.58200E-001	-1.13521E-004	11	...........	-327.56
	56	28.5	5.65569E-001	3.24262E-002	0.00000E+000	5.66200E-001	-1.15221E-004	11	...........	-327.56
	64	32.5	5.73570E-001	3.45425E-002	0.00000E+000	5.74200E-001	-1.12488E-004	11	...........	-327.56
	72	36.5	5.81492E-001	3.67902E-002	0.00000E+000	5.82200E-001	-1.13155E-004	11	...........	-327.56
	80	40.5	5.89517E-001	3.83452E-002	0.00000E+000	5.90200E-001	-1.12288E-004	11	...........	-327.56
	88	44.5	5.97550E-001	3.87129E-002	0.00000E+000	5.98200E-001	-1.17621E-004	11	...........	-327.56
	96	48.5	6.05489E-001	3.95036E-002	0.00000E+000	6.06200E-001	-1.14488E-004	11	...........	-327.56
	104	52.5	6.13487E-001	4.02574E-002	0.00000E+000	6.14200E-001	-1.10755E-004	11	...........	-327.56
	112	56.5	6.21502E-001	4.08352E-002	0.00000E+000	6.22200E-001	-1.12488E-004	11	...........	-327.56
	120	60.5	6.29419E-001	4.67286E-002	0.00000E+000	6.30200E-001	-1.12521E-004	11	...........	-327.56
	128	64.5	6.37435E-001	4.74569E-002	0.00000E+000	6.38200E-001	-1.14055E-004	11	...........	-327.56
	136	68.5	6.45501E-001	4.81701E-002	0.00000E+000	6.46200E-001	-1.10155E-004	11	...........	-327.56
	144	72.5	6.53404E-001	4.03703E-002	0.00000E+000	6.54200E-001	-1.13955E-004	11	...........	-327.56
	152	76.5	6.61456E-001	4.03368E-002	0.00000E+000	6.62200E-001	-1.16321E-004	11	...........	-327.56
	160	80.5	6.69470E-001	4.06634E-002	0.00000E+000	6.70200E-001	-1.11455E-004	11	...........	-327.56
	168	84.5	6.77478E-001	4.37227E-002	0.00000E+000	6.78200E-001	-1.11688E-004	11	...........	-327.56
	176	88.5	6.85412E-001	4.42016E-002	0.00000E+000	6.86200E-001	-1.12955E-004	11	...........	-327.56
	184	92.5	6.93456E-001	4.29757E-002	0.00000E+000	6.94200E-001	-1.11655E-004	11	...........	-327.56
	192	96.5	7.01460E-001	4.31103E-002	0.00000E+000	7.02200E-001	-1.11755E-004	11	...........	-327.56
	200	100.5	7.09406E-001	4.14215E-002	0.00000E+000	7.10200E-001	-1.13755E-004	11	...........	-327.56
	208	104.5	7.17373E-001	3.94690E-002	0.00000E+000	7.18200E-001	-1.12855E-004	11	...........	-327.56
	216	108.5	7.25421E-001	3.95404E-002	0.00000E+000	7.26200E-001	-1.13588E-004	11	...........	-327.56
	224	112.5	7.33343E-001	3.96805E-002	0.00000E+000	7.34200E-001	-1.13155E-004	11	...........	-327.56
	232	116.5	7.41370E-001	3.88731E-002	0.00000E+000	7.42200E-001	-1.14655E-004	11	...........	-327.56
	240	120.5	7.49409E-001	3.85705E-002	0.00000E+000	7.50200E-001	-1.11088E-004	11	...........	-327.56
	248	124.5	7.57327E-001	3.80658E-002	0.00000E+000	7.58200E-001	-1.12655E-004	11	...........	-327.56
	256	128.5	7.65357E-001	3.81483E-002	0.00000E+000	7.66200E-001	-1.10355E-004	11	...........	-327.56
	264	132.5	7.73374E-001	3.76147E-002	0.00000E+000	7.74200E-001	-1.10155E-004	11	...........	-327.56
	272	136.5	7.81286E-001	3.81035E-002	0.00000E+000	7.82200E-001	-1.13755E-004	11	...........	-327.56
	280	140.5	7.89329E-001	3.70210E-002	0.00000E+000	7.90200E-001	-1.13755E-004	11	...........	-327.56
	288	144.5	7.97365E-001	3.63876E-002	0.00000E+000	7.98200E-001	-1.12121E-004	11	...........	-327.56
	296	148.5	8.05361E-001	3.57917E-002	0.00000E+000	8.06200E-001	-1.13655E-004	11	...........	-327.56
	304	152.5	8.13310E-001	3.56283E-002	0.00000E+000	8.14200E-001	-1.11388E-004	11	...........	-327.56
	312	156.5	8.21290E-001	3.57500E-002	0.00000E+000	8.22200E-001	-1.13921E-004	11	...........	-327.56
	320	160.5	8.29314E-001	3.53389E-002	0.00000E+000	8.30200E-001	-1.13388E-004	11	...........	-327.56
	328	164.5	8.37235E-001	3.54395E-002	0.00000E+000	8.38200E-001	-1.13188E-004	11	...........	-327.56
	336	168.5	8.45261E-001	3.47731E-002	0.00000E+000	8.46200E-001	-1.10288E-004	11	...........	-327.56
	344	172.5	8.53313E-001	3.39206E-002	0.00000E+000	8.54200E-001	-1.16388E-004	11	...........	-327.56
	352	176.5	8.61210E-001	3.38834E-002	0.00000E+000	8.62200E-001	-1.16055E-004	11	...........	-327.56
	360	180.5	8.69246E-001	3.36798E-002	0.00000E+000	8.70200E-001	-1.14688E-004	11	...........	-327.56
	368	184.5	8.77286E-001	3.30666E-002	0.00000E+000	8.78200E-001	-1.13955E-004	11	...........	-327.56
	376	188.5	8.85193E-001	3.31631E-002	0.00000E+000	8.86200E-001	-1.12355E-004	11	...........	-327.56
	384	192.5	8.93222E-001	3.30766E-002	0.00000E+000	8.94200E-001	-1.12888E-004	11	...........	-327.56
	392	196.5	9.01257E-001	3.31886E-002	0.00000E+000	9.02200E-001	-1.14421E-004	11	...........	-327.56
	400	200.5	9.09167E-001	3.30838E-002	0.00000E+000	9.10200E-001	-1.16655E-004	11	...........	-327.56
	408	204.5	9.17212E-001	3.32464E-002	0.00000E+000	9.18200E-001	-1.12388E-004	11	...........	-327.56
	416	208.5	9.25205E-001	3.31814E-002	0.00000E+000	9.26200E-001	-1.14755E-004	11	...........	-327.56
	424	212.5	9.33214E-001	3.32678E-002	0.00000E+000	9.34200E-001	-1.15288E-004	11	...........	-327.56
	432	216.5	9.41145E-001	3.34841E-002	0.00000E+000	9.42200E-001	-1.11955E-004	11	...........	-327.56
	440	220.5	9.49181E-001	3.36287E-002	0.00000E+000	9.50200E-001	-1.14188E-004	11	...........	-327.56
	448	224.5	9.57207E-001	3.38308E-002	0.00000E+000	9.58200E-001	-1.11755E-004	11	...........	-327.56
	456	228.5	9.65139E-001	3.38057E-002	0.00000E+000	9.66200E-001	-1.15388E-004	11	...........	-327.56
	464	232.5	9.73157E-001	3.41611E-002	0.00000E+000	9.74200E-001	-1.17955E-004	11	...........	-327.56
	472	236.5	9.81181E-001	3.45336E-002	0.00000E+000	9.82200E-001	-1.12688E-004	11	...........	-327.56
	480	240.5	9.89102E-001	3.52960E-002	0.00000E+000	9.90200E-001	-1.16588E-004	11	...........	-327.56
	488	244.5	9.97117E-001	3.60474E-002	0.00000E+000	9.98200E-001	-1.13755E-004	11	...........	-327.56
	496	248.5	1.00516E+000	3.69851E-002	0.00000E+000	1.00620E+000	-1.14321E-004	11	...........	-327.56
	504	252.5	1.01306E+000	3.79080E-002	0.00000E+000	1.01420E+000	-1.18221E-004	11	...........	-327.56
	512	256.5	1.02111E+000	3.88294E-002	0.00000E+000	1.02220E+000	-1.14955E-004	11	...........	-327.56
	520	260.5	1.02913E+000	3.95626E-002	0.00000E+000	1.03020E+000	-1.16688E-004	11	...........	-327.56
	528	264.5	1.03701E+000	4.15827E-002	0.00000E+000	1.03820E+000	-1.14221E-004	11	...........	-327.56
	536	268.5	1.04506E+000	4.28859E-002	0.00000E+000	1.04620E+000	-1.10288E-004	11	...........	-327.56
	544	272.5	1.05309E+000	4.56461E-002	0.00000E+000	1.05420E+000	-1.15521E-004	11	...........	-327.56
	552	276.5	1.06110E+000	4.85879E-002	0.00000E+000	1.06220E+000	-1.13488E-004	11	...........	-327.56
	560	280.5	1.06902E+000	5.16058E-002	0.00000E+000	1.07020E+000	-1.14855E-004	11	...........	-327.56
	568	284.5	1.07706E+000	5.45437E-002	0.00000E+000	1.07820E+000	-1.11855E-004	11	...........	-327.56
	576	288.5	1.08506E+000	5.82351E-002	0.00000E+000	1.08620E+000	-1.11555E-004	11	...........	-327.56
	584	292.5	1.09299E+000	6.20319E-002	0.00000E+000	1.09420E+000	-1.12555E-004	11	...........	-327.56
	592	296.5	1.10100E+000	6.61347E-002	0.00000E+000	1.10220E+000	-1.09355E-004	11	...........	-327.56
	600	300.5	1.10903E+000	7.07190E-002	0.00000E+000	1.11020E+000	-1.10755E-004	11	...........	-327.56
	608	304.5	1.11693E+000	7.54283E-002	0.00000E+000	1.11820E+000	-1.12955E-004	11	...........	-327.56
	616	308.5	1.12497E+000	8.08153E-002	0.00000E+000	1.12620E+000	-1.15855E-004	11	...........	-327.56
	624	312.5	1.13294E+000	8.60170E-002	0.00000E+000	1.13420E+000	-1.13555E-004	11	...........	-327.56
	632	316.5	1.14082E+000	9.15836E-002	0.00000E+000	1.14220E+000	-1.12255E-004	11	...........	-327.56
	640	320.5	1.14886E+000	9.80327E-002	0.00000E+000	1.15020E+000	-1.11455E-004	11	...........	-327.56
	648	324.5	1.15690E+000	1.05470E-001	0.00000E+000	1.15820E+000	-1.11888E-004	11	...........	-327.56
	656	328.5	1.16484E+000	1.14810E-001	0.00000E+000	1.16620E+000	-1.12655E-004	11	...........	-327.56
	664	332.5	1.17279E+000	1.24384E-001	0.00000E+000	1.17420E+000	-1.15021E-004	11	...........	-327.56
	672	336.5	1.18080E+000	1.34866E-001	0.00000E+000	1.18220E+000	-1.12388E-004	11	...........	-327.56
	680	340.5	1.18878E+000	1.45531E-001	0.00000E+000	1.19020E+000	-1.14155E-004	11	...........	-327.56
	688	344.5	1.19674E+000	1.57082E-001	0.00000E+000	1.19820E+000	-1.15788E-004	11	...........	-327.56
	696	348.5	1.20474E+000	1.71492E-001	0.00000E+000	1.20620E+000	-1.13921E-004	11	...........	-327.56
	704	352.5	1.21271E+000	1.86506E-001	0.00000E+000	1.21420E+000	-1.11388E-004	11	...........	-327.56
	712	356.5	1.22069E+000	2.01949E-001	0.00000E+000	1.22220E+000	-1.12821E-004	11	...........	-327.56
	720	360.5	1.22866E+000	2.18562E-001	0.00000E+000	1.23020E+000	-1.10121E-004	11	...........	-327.56
	728	364.5	1.23664E+000	2.36247E-001	0.00000E+000	1.23820E+000	-1.10388E-004	11	...........	-327.56
	736	368.5	1.24460E+000	2.39611E-001	0.00000E+000	1.24620E+000	-1.12921E-004	11	...........	-327.56
	744	372.5	1.25259E+000	2.40159E-001	0.00000E+000	1.25420E+000	-1.08688E-004	11	...........	-327.56
	752	376.5	1.26059E+000	2.54533E-001	0.00000E+000	1.26220E+000	-1.07521E-004	11	...........	-327.56
	760	380.5	1.26875E+000	2.73095E-001	0.00000E+000	1.27020E+000	-1.18055E-004	12	...........	-327.56
	768	384.5	1.27677E+000	2.89984E-001	0.00000E+000	1.27820E+000	-1.12488E-004	12	...........	-327.56
	776	388.5	1.28477E+000	3.11717E-001	0.00000E+000	1.28620E+000	-1.17588E-004	12	...........	-327.56
	784	392.5	1.29276E+000	3.34329E-001	0.00000E+000	1.29420E+000	-1.13088E-004	12	...........	-327.56
	792	396.5	1.30073E+000	3.57782E-001	0.00000E+000	1.30220E+000	-1.16321E-004	12	...........	-327.56
	800	400.5	1.30873E+000	3.87183E-001	0.00000E+000	1.31020E+000	-1.15321E-004	12	...........	-327.56
	808	404.5	1.31671E+000	4.18056E-001	0.00000E+000	1.31820E+000	-1.17321E-004	12	...........	-327.56
	816	408.5	1.32467E+000	4.54068E-001	0.00000E+000	1.32620E+000	-1.18255E-004	12	...........	-327.56
	824	412.5	1.33260E+000	4.90523E-001	0.00000E+000	1.33420E+000	-1.15655E-004	12	...........	-327.56
	832	416.5	1.34059E+000	5.14533E-001	0.00000E+000	1.34220E+000	-1.12821E-004	12	...........	-327.56
	840	420.5	1.34852E+000	5.42767E-001	0.00000E+000	1.35020E+000	-1.14121E-004	12	...........	-327.56
	848	424.5	1.35648E+000	5.77910E-001	0.00000E+000	1.35820E+000	-1.16721E-004	12	...........	-327.56
	856	428.5	1.36453E+000	5.94518E-001	0.00000E+000	1.36620E+000	-1.13755E-004	12	...........	-327.56
	864	432.5	1.37241E+000	6.35197E-001	0.00000E+000	1.37420E+000	-1.14521E-004	12	...........	-327.56
	872	436.5	1.38041E+000	6.73751E-001	0.00000E+000	1.38220E+000	-1.12621E-004	12	...........	-327.56
	880	440.5	1.38841E+000	7.09680E-001	0.00000E+000	1.39020E+000	-1.11788E-004	12	...........	-327.56
	888	444.5	1.39630E+000	7.34326E-001	0.00000E+000	1.39820E+000	-1.14188E-004	12	...........	-327.56
	896	448.5	1.40433E+000	7.66120E-001	0.00000E+000	1.40620E+000	-1.12688E-004	12	...........	-327.56
	904	452.5	1.41231E+000	8.17615E-001	0.00000E+000	1.41420E+000	-1.11255E-004	12	...........	-327.56
	912	456.5	1.42030E+000	8.59337E-001	0.00000E+000	1.42220E+000	-1.11888E-004	12	...........	-327.56
	920	460.5	1.42823E+000	8.91024E-001	0.00000E+000	1.43020E+000	-1.13421E-004	12	...........	-327.56
	928	464.5	1.43623E+000	9.30568E-001	0.00000E+000	1.43820E+000	-1.09955E-004	12	...........	-327.56
	936	468.5	1.44421E+000	9.62359E-001	0.00000E+000	1.44620E+000	-1.13888E-004	12	...........	-327.56
	944	472.5	1.45214E+000	9.90849E-001	0.00000E+000	1.45420E+000	-1.12421E-004	12	...........	-327.56
	952	476.5	1.46015E+000	1.02713E+000	0.00000E+000	1.46220E+000	-1.10688E-004	12	...........	-327.56
	960	480.5	1.46817E+000	1.05886E+000	0.00000E+000	1.47020E+000	-1.13321E-004	12	...........	-327.56
	968	484.5	1.47607E+000	1.08694E+000	0.00000E+000	1.47820E+000	-1.07321E-004	12	...........	-327.56
	976	488.5	1.48406E+000	1.11340E+000	0.00000E+000	1.48620E+000	-1.18455E-004	12	...........	-327.56
	984	492.5	1.49207E+000	1.14049E+000	0.00000E+000	1.49420E+000	-1.12055E-004	12	...........	-327.56
	992	496.5	1.49999E+000	1.16942E+000	0.00000E+000	1.50220E+000	-1.16955E-004	12	...........	-327.56
	1000	500.5	1.50799E+000	1.19334E+000	0.00000E+000	1.51020E+000	-1.15355E-004	12	...........	-327.56
	1008	504.5	1.51602E+000	1.21733E+000	0.00000E+000	1.51820E+000	-1.14155E-004	12	...........	-327.56
	1016	508.5	1.52392E+000	1.24775E+000	0.00000E+000	1.52620E+000	-1.15955E-004	12	...........	-327.56
	1024	512.5	1.53195E+000	1.27143E+000	0.00000E+000	1.53420E+000	-1.12388E-004	12	...........	-327.56
	1032	516.5	1.53992E+000	1.30014E+000	0.00000E+000	1.54220E+000	-1.07221E-004	12	...........	-327.56
	1040	520.5	1.54792E+000	1.32521E+000	0.00000E+000	1.55020E+000	-1.15221E-004	12	...........	-327.56
	1048	524.5	1.55586E+000	1.35531E+000	0.00000E+000	1.55820E+000	-1.11155E-004	12	...........	-327.56
	1056	528.5	1.56389E+000	1.38092E+000	0.00000E+000	1.56620E+000	-1.12155E-004	12	...........	-327.56
	1064	532.5	1.57188E+000	1.40998E+000	0.00000E+000	1.57420E+000	-1.10488E-004	12	...........	-327.56
	1072	536.5	1.57981E+000	1.43824E+000	0.00000E+000	1.58220E+000	-1.14955E-004	12	...........	-327.56
	1080	540.5	1.58781E+000	1.46337E+000	0.00000E+000	1.59020E+000	-1.12888E-004	12	...........	-327.56
	1088	544.5	1.59582E+000	1.46467E+000	0.00000E+000	1.59820E+000	-1.12588E-004	12	...........	-327.56
	1096	548.5	1.60377E+000	1.48140E+000	0.00000E+000	1.60620E+000	-1.15288E-004	12	...........	-327.56
	1104	552.5	1.61176E+000	1.50533E+000	0.00000E+000	1.61420E+000	-1.15821E-004	12	...........	-327.56
	1112	556.5	1.61982E+000	1.53184E+000	0.00000E+000	1.62220E+000	-1.07321E-004	12	...........	-327.56
	1120	560.5	1.62770E+000	1.55741E+000	0.00000E+000	1.63020E+000	-1.08821E-004	12	...........	-327.56
	1128	564.5	1.63574E+000	1.58804E+000	0.00000E+000	1.63820E+000	-1.13988E-004	12	...........	-327.56
	1136	568.5	1.64374E+000	1.61586E+000	0.00000E+000	1.64620E+000	-1.11555E-004	12	...........	-327.56
	1144	572.5	1.65162E+000	1.63902E+000	0.00000E+000	1.65420E+000	-1.09955E-004	12	...........	-327.56
	1152	576.5	1.65965E+000	1.66183E+000	0.00000E+000	1.66220E+000	-1.14421E-004	12	...........	-327.56
	1160	580.5	1.66771E+000	1.68475E+000	0.00000E+000	1.67020E+000	-1.11355E-004	12	...........	-327.56
	1168	584.5	1.67570E+000	1.71303E+000	0.00000E+000	1.67820E+000	-1.10988E-004	12	...........	-327.56
	1176	588.5	1.68363E+000	1.73315E+000	0.00000E+000	1.68620E+000	-1.10821E-004	12	...........	-327.56
	1184	592.5	1.69165E+000	1.75996E+000	0.00000E+000	1.69420E+000	-1.14855E-004	12	...........	-327.56
	1192	596.5	1.69566E+000	1.77272E+000	0.00000E+000	1.69820E+000	-1.10855E-004	12	...........	-327.56
	1200	600.5	1.68762E+000	1.75176E+000	0.00000E+000	1.69020E+000	-1.12488E-004	12	...........	-327.56
	1208	604.5	1.67961E+000	1.72863E+000	0.00000E+000	1.68220E+000	-1.15055E-004	12	...........	-327.56
	1216	608.5	1.67170E+000	1.70327E+000	0.00000E+000	1.67420E+000	-1.13721E-004	12	...........	-327.56
	1224	612.5	1.66365E+000	1.68040E+000	0.00000E+000	1.66620E+000	-1.10888E-004	12	...........	-327.56
	1232	616.5	1.65565E+000	1.65595E+000	0.00000E+000	1.65820E+000	-1.12588E-004	12	...........	-327.56
	1240	620.5	1.64773E+000	1.63469E+000	0.00000E+000	1.65020E+000	-1.11521E-004	12	...........	-327.56
	1248	624.5	1.63972E+000	1.61128E+000	0.00000E+000	1.64220E+000	-1.14655E-004	12	...........	-327.56
	1256	628.5	1.63174E+000	1.58695E+000	0.00000E+000	1.63420E+000	-1.11655E-004	12	...........	-327.56
	1264	632.5	1.62378E+000	1.56552E+000	0.00000E+000	1.62620E+000	-1.12021E-004	12	...........	-327.56
	1272	636.5	1.61580E+000	1.54022E+000	0.00000E+000	1.61820E+000	-1.13455E-004	12	...........	-327.56
	1280	640.5	1.60780E+000	1.51621E+000	0.00000E+000	1.61020E+000	-1.13388E-004	12	...........	-327.56
	1288	644.5	1.59982E+000	1.49113E+000	0.00000E+000	1.60220E+000	-1.12488E-004	12	...........	-327.56
	1296	648.5	1.59188E+000	1.46650E+000	0.00000E+000	1.59420E+000	-1.17788E-004	12	...........	-327.56
	1304	652.5	1.58385E+000	1.44458E+000	0.00000E+000	1.58620E+000	-1.14921E-004	12	...........	-327.56
	1312	656.5	1.57587E+000	1.42329E+000	0.00000E+000	1.57820E+000	-1.16688E-004	12	...........	-327.56
	1320	660.5	1.56790E+000	1.39908E+000	0.00000E+000	1.57020E+000	-1.14055E-004	12	...........	-327.56
	1328	664.5	1.55989E+000	1.36553E+000	0.00000E+000	1.56220E+000	-1.16988E-004	12	...........	-327.56
	1336	668.5	1.55191E+000	1.33664E+000	0.00000E+000	1.55420E+000	-1.13721E-004	12	...........	-327.56
	1344	672.5	1.54392E+000	1.31397E+000	0.00000E+000	1.54620E+000	-1.17555E-004	12	...........	-327.56
	1352	676.5	1.53594E+000	1.29222E+000	0.00000E+000	1.53820E+000	-1.18121E-004	12	...........	-327.56
	1360	680.5	1.52795E+000	1.27031E+000	0.00000E+000	1.53020E+000	-1.17588E-004	12	...........	-327.56
	1368	684.5	1.51999E+000	1.24667E+000	0.00000E+000	1.52220E+000	-1.16321E-004	12	...........	-327.56
	1376	688.5	1.51200E+000	1.22411E+000	0.00000E+000	1.51420E+000	-1.12521E-004	12	...........	-327.56
	1384	692.5	1.50397E+000	1.20126E+000	0.00000E+000	1.50620E+000	-1.14555E-004	12	...........	-327.56
	1392	696.5	1.49606E+000	1.17923E+000	0.00000E+000	1.49820E+000	-1.15221E-004	12	...........	-327.56
	1400	700.5	1.48805E+000	1.15669E+000	0.00000E+000	1.49020E+000	-1.14655E-004	12	...........	-327.56
	1408	704.5	1.48002E+000	1.13218E+000	0.00000E+000	1.48220E+000	-1.15821E-004	12	...........	-327.56
	1416	708.5	1.47208E+000	1.10969E+000	0.00000E+000	1.47420E+000	-1.11521E-004	12	...........	-327.56
	1424	712.5	1.46413E+000	1.08638E+000	0.00000E+000	1.46620E+000	-1.13555E-004	12	...........	-327.56
	1432	716.5	1.45612E+000	1.06332E+000	0.00000E+000	1.45820E+000	-1.16388E-004	12	...........	-327.56
	1440	720.5	1.44808E+000	1.04014E+000	0.00000E+000	1.45020E+000	-1.11555E-004	12	...........	-327.56
	1448	724.5	1.44020E+000	1.01694E+000	0.00000E+000	1.44220E+000	-1.11388E-004	12	...........	-327.56
	1456	728.5	1.43220E+000	9.93073E-001	0.00000E+000	1.43420E+000	-1.16755E-004	12	...........	-327.56
	1464	732.5	1.42418E+000	9.73997E-001	0.00000E+000	1.42620E+000	-1.13221E-004	12	...........	-327.56
	1472	736.5	1.41627E+000	9.48853E-001	0.00000E+000	1.41820E+000	-1.12288E-004	12	...........	-327.56
	1480	740.5	1.40823E+000	9.27514E-001	0.00000E+000	1.41020E+000	-1.15588E-004	12	...........	-327.56
	1488	744.5	1.40023E+000	9.04190E-001	0.00000E+000	1.40220E+000	-1.14421E-004	12	...........	-327.56
	1496	748.5	1.39232E+000	8.82388E-001	0.00000E+000	1.39420E+000	-1.14721E-004	12	...........	-327.56
	1504	752.5	1.38432E+000	8.60886E-001	0.00000E+000	1.38620E+000	-1.14688E-004	12	...........	-327.56
	1512	756.5	1.37629E+000	8.37844E-001	0.00000E+000	1.37820E+000	-1.11488E-004	12	...........	-327.56
	1520	760.5	1.36838E+000	8.13961E-001	0.00000E+000	1.37020E+000	-1.13655E-004	12	...........	-327.56
	1528	764.5	1.36037E+000	7.94260E-001	0.00000E+000	1.36220E+000	-1.13655E-004	12	...........	-327.56
	1536	768.5	1.35236E+000	7.69259E-001	0.00000E+000	1.35420E+000	-1.09655E-004	12	...........	-327.56
	1544	772.5	1.34434E+000	7.45054E-001	0.00000E+000	1.34620E+000	-1.13488E-004	12	...........	-327.56
	1552	776.5	1.33644E+000	7.22321E-001	0.00000E+000	1.33820E+000	-1.14521E-004	12	...........	-327.56
	1560	780.5	1.32846E+000	7.02123E-001	0.00000E+000	1.33020E+000	-1.15021E-004	12	...........	-327.56
	1568	784.5	1.32045E+000	6.81600E-001	0.00000E+000	1.32220E+000	-1.16955E-004	12	...........	-327.56
	1576	788.5	1.31254E+000	6.59124E-001	0.00000E+000	1.31420E+000	-1.10488E-004	12	...........	-327.56
	1584	792.5	1.30453E+000	6.36952E-001	0.00000E+000	1.30620E+000	-1.10355E-004	12	...........	-327.56
	1592	796.5	1.29651E+000	6.14835E-001	0.00000E+000	1.29820E+000	-1.13021E-004	12	...........	-327.56
	1600	800.5	1.28861E+000	5.89894E-001	0.00000E+000	1.29020E+000	-1.13055E-004	12	...........	-327.56
	1608	804.5	1.28059E+000	5.66988E-001	0.00000E+000	1.28220E+000	-1.08221E-004	12	...........	-327.56
	1616	808.5	1.27259E+000	5.46184E-001	0.00000E+000	1.27420E+000	-1.08921E-004	12	...........	-327.56
	1624	812.5	1.26467E+000	5.24425E-001	0.00000E+000	1.26620E+000	-1.09255E-004	12	...........	-327.56
	1632	816.5	1.25668E+000	5.02843E-001	0.00000E+000	1.25820E+000	-1.09621E-004	12	...........	-327.56
	1640	820.5	1.24865E+000	4.84194E-001	0.00000E+000	1.25020E+000	-1.09921E-004	12	...........	-327.56
	1648	824.5	1.24072E+000	4.64070E-001	0.00000E+000	1.24220E+000	-1.13421E-004	12	...........	-327.56
	1656	828.5	1.23274E+000	4.44487E-001	0.00000E+000	1.23420E+000	-1.10955E-004	12	...........	-327.56
	1664	832.5	1.22472E+000	4.24688E-001	0.00000E+000	1.22620E+000	-1.10455E-004	12	...........	-327.56
	1672	836.5	1.21667E+000	4.02225E-001	0.00000E+000	1.21820E+000	-1.14021E-004	12	...........	-327.56
	1680	840.5	1.20878E+000	3.82038E-001	0.00000E+000	1.21020E+000	-1.10355E-004	12	...........	-327.56
	1688	844.5	1.20076E+000	3.62228E-001	0.00000E+000	1.20220E+000	-1.07855E-004	12	...........	-327.56
	1696	848.5	1.19276E+000	3.41456E-001	0.00000E+000	1.19420E+000	-1.08655E-004	12	...........	-327.56
	1704	852.5	1.18484E+000	3.20970E-001	0.00000E+000	1.18620E+000	-1.15721E-004	12	...........	-327.56
	1712	856.5	1.17682E+000	3.01221E-001	0.00000E+000	1.17820E+000	-1.14755E-004	12	...........	-327.56
	1720	860.5	1.16881E+000	2.80750E-001	0.00000E+000	1.17020E+000	-1.13688E-004	12	...........	-327.56
	1728	864.5	1.16091E+000	2.61696E-001	0.00000E+000	1.16220E+000	-1.15121E-004	12	...........	-327.56
	1736	868.5	1.15288E+000	2.43273E-001	0.00000E+000	1.15420E+000	-1.09888E-004	12	...........	-327.56
	1744	872.5	1.14463E+000	2.24357E-001	0.00000E+000	1.14620E+000	-1.04921E-004	11	...........	-327.56
	1752	876.5	1.13672E+000	2.07491E-001	0.00000E+000	1.13820E+000	-1.07488E-004	11	...........	-327.56
	1760	880.5	1.12875E+000	1.90772E-001	0.00000E+000	1.13020E+000	-1.10188E-004	11	...........	-327.56
	1768	884.5	1.12078E+000	1.74792E-001	0.00000E+000	1.12220E+000	-1.05255E-004	11	...........	-327.56
	1776	888.5	1.11285E+000	1.59220E-001	0.00000E+000	1.11420E+000	-1.11688E-004	11	...........	-327.56
	1784	892.5	1.10489E+000	1.44424E-001	0.00000E+000	1.10620E+000	-1.08755E-004	11	...........	-327.56
	1792	896.5	1.09686E+000	1.30452E-001	0.00000E+000	1.09820E+000	-1.15021E-004	11	...........	-327.56
	1800	900.5	1.08884E+000	1.17187E-001	0.00000E+000	1.09020E+000	-1.12288E-004	11	...........	-327.56
	1808	904.5	1.08098E+000	1.04539E-001	0.00000E+000	1.08220E+000	-1.11221E-004	11	...........	-327.56
	1816	908.5	1.07297E+000	9.24569E-002	0.00000E+000	1.07420E+000	-1.10521E-004	11	...........	-327.56
	1824	912.5	1.06496E+000	8.09744E-002	0.00000E+000	1.06620E+000	-1.12355E-004	11	...........	-327.56
	1832	916.5	1.05705E+000	7.02122E-002	0.00000E+000	1.05820E+000	-1.10855E-004	11	...........	-327.56
	1840	920.5	1.04902E+000	6.05966E-002	0.00000E+000	1.05020E+000	-1.09288E-004	11	...........	-327.56
	1848	924.5	1.04102E+000	5.26882E-002	0.00000E+000	1.04220E+000	-1.12755E-004	11	...........	-327.56
	1856	928.5	1.03308E+000	4.65771E-002	0.00000E+000	1.03420E+000	-1.11321E-004	11	...........	-327.56
	1864	932.5	1.02510E+000	4.20126E-002	0.00000E+000	1.02620E+000	-1.09721E-004	11	...........	-327.56
	1872	936.5	1.01708E+000	3.86125E-002	0.00000E+000	1.01820E+000	-1.13155E-004	11	...........	-327.56
	1880	940.5	1.00914E+000	3.56272E-002	0.00000E+000	1.01020E+000	-1.13421E-004	11	...........	-327.56
	1888	944.5	1.00113E+000	3.31954E-002	0.00000E+000	1.00220E+000	-1.12688E-004	11	...........	-327.56
	1896	948.5	9.93109E-001	3.09868E-002	0.00000E+000	9.94200E-001	-1.13021E-004	11	...........	-327.56
	1904	952.5	9.85147E-001	2.89585E-002	0.00000E+000	9.86200E-001	-1.12021E-004	11	...........	-327.56
	1912	956.5	9.77173E-001	2.73753E-002	0.00000E+000	9.78200E-001	-1.13021E-004	11	...........	-327.56
	1920	960.5	9.69135E-001	2.59601E-002	0.00000E+000	9.70200E-001	-1.08788E-004	11	...........	-327.56
	1928	964.5	9.61116E-001	2.48426E-002	0.00000E+000	9.62200E-001	-1.13855E-004	11	...........	-327.56
	1936	968.5	9.52955E-001	2.41450E-002	0.00000E+000	9.54200E-001	-1.10621E-004	10	...........	-327.56
	1944	972.5	9.44912E-001	2.35568E-002	0.00000E+000	9.46200E-001	-1.12755E-004	10	...........	-327.56
	1952	976.5	9.36880E-001	2.30924E-002	0.00000E+000	9.38200E-001	-1.06155E-004	10	...........	-327.56
	1960	980.5	9.28959E-001	2.27448E-002	0.00000E+000	9.30200E-001	-1.08388E-004	10	...........	-327.56
	1968	984.5	9.20985E-001	2.24533E-002	0.00000E+000	9.22200E-001	-1.09888E-004	10	...........	-327.56
	1976	988.5	9.12976E-001	2.22809E-002	0.00000E+000	9.14200E-001	-1.12688E-004	10	...........	-327.56
	1984	992.5	9.05031E-001	2.21043E-002	0.00000E+000	9.06200E-001	-1.11788E-004	10	...........	-327.56
	1992	996.5	8.97004E-001	2.19929E-002	0.00000E+000	8.98200E-001	-1.11655E-004	10	...........	-327.56
	2000	1000.5	8.88991E-001	2.19091E-002	0.00000E+000	8.90200E-001	-1.13288E-004	10	...........	-327.56
	2008	1004.5	8.81046E-001	2.16656E-002	0.00000E+000	8.82200E-001	-1.06855E-004	10	...........	-327.56
	2016	1008.5	8.73033E-001	2.16904E-002	0.00000E+000	8.74200E-001	-1.10521E-004	10	...........	-327.56
	2024	1012.5	8.65015E-001	2.16874E-002	0.00000E+000	8.66200E-001	-1.10155E-004	10	...........	-327.56
	2032	1016.5	8.57052E-001	2.16137E-002	0.00000E+000	8.58200E-001	-1.07855E-004	10	...........	-327.56
	2040	1020.5	8.49061E-001	2.14609E-002	0.00000E+000	8.50200E-001	-1.12688E-004	10	...........	-327.56
	2048	1024.5	8.41032E-001	2.13284E-002	0.00000E+000	8.42200E-001	-1.09388E-004	10	...........	-327.56
	2056	1028.5	8.33002E-001	2.12692E-002	0.00000E+000	8.34200E-001	-1.10388E-004	10	...........	-327.56
	2064	1032.5	8.25080E-001	2.11500E-002	0.00000E+000	8.26200E-001	-1.10488E-004	10	...........	-327.56
	2072	1036.5	8.17088E-001	2.12243E-002	0.00000E+000	8.18200E-001	-1.05755E-004	10	...........	-327.56
	2080	1040.5	8.09068E-001	2.10911E-002	0.00000E+000	8.10200E-001	-1.10755E-004	10	...........	-327.56
	2088	1044.5	8.01158E-001	2.11347E-002	0.00000E+000	8.02200E-001	-1.11721E-004	10	...........	-327.56
	2096	1048.5	7.93102E-001	2.08726E-002	0.00000E+000	7.94200E-001	-1.09255E-004	10	...........	-327.56
	2104	1052.5	7.85090E-001	2.09668E-002	0.00000E+000	7.86200E-001	-1.08088E-004	10	...........	-327.56
	2112	1056.5	7.77143E-001	2.08462E-002	0.00000E+000	7.78200E-001	-1.09221E-004	10	...........	-327.56
	2120	1060.5	7.69138E-001	2.08305E-002	0.00000E+000	7.70200E-001	-1.11321E-004	10	...........	-327.56
	2128	1064.5	7.61133E-001	2.07452E-002	0.00000E+000	7.62200E-001	-1.09188E-004	10	...........	-327.56
	2136	1068.5	7.53181E-001	2.06839E-002	0.00000E+000	7.54200E-001	-1.09621E-004	10	...........	-327.56
	2144	1072.5	7.45168E-001	2.07164E-002	0.00000E+000	7.46200E-001	-1.09188E-004	10	...........	-327.56
	2152	1076.5	7.37152E-001	2.04448E-002	0.00000E+000	7.38200E-001	-1.09755E-004	10	...........	-327.56
	2160	1080.5	7.29187E-001	2.03282E-002	0.00000E+000	7.30200E-001	-1.06121E-004	10	...........	-327.56
	2168	1084.5	7.21188E-001	2.01917E-002	0.00000E+000	7.22200E-001	-1.07688E-004	10	...........	-327.56
	2176	1088.5	7.13210E-001	1.97904E-002	0.00000E+000	7.14200E-001	-1.10955E-004	10	...........	-327.56
	2184	1092.5	7.05178E-001	1.95555E-002	0.00000E+000	7.06200E-001	-1.10988E-004	10	...........	-327.56
	2192	1096.5	6.97271E-001	1.91111E-002	0.00000E+000	6.98200E-001	-1.06588E-004	10	...........	-327.56
	2200	1100.5	6.89250E-001	1.87941E-002	0.00000E+000	6.90200E-001	-1.11421E-004	10	...........	-327.56
	2208	1104.5	6.81224E-001	1.83566E-002	0.00000E+000	6.82200E-001	-1.07888E-004	10	...........	-327.56
	2216	1108.5	6.73317E-001	1.79596E-002	0.00000E+000	6.74200E-001	-1.08088E-004	10	...........	-327.56
	2224	1112.5	6.65281E-001	1.74231E-002	0.00000E+000	6.66200E-001	-1.08721E-004	10	...........	-327.56
	2232	1116.5	6.57294E-001	1.69973E-002	0.00000E+000	6.58200E-001	-1.11988E-004	10	...........	-327.56
	2240	1120.5	6.49359E-001	1.63984E-002	0.00000E+000	6.50200E-001	-1.11055E-004	10	...........	-327.56
	2248	1124.5	6.41360E-001	1.58911E-002	0.00000E+000	6.42200E-001	-1.06688E-004	10	...........	-327.56
	2256	1128.5	6.33339E-001	1.53005E-002	0.00000E+000	6.34200E-001	-1.09921E-004	10	...........	-327.56
	2264	1132.5	6.25410E-001	1.47415E-002	0.00000E+000	6.26200E-001	-1.09721E-004	10	...........	-327.56
	2272	1136.5	6.17404E-001	1.38048E-002	0.00000E+000	6.18200E-001	-1.10788E-004	10	...........	-327.56
	2280	1140.5	6.09423E-001	1.35679E-002	0.00000E+000	6.10200E-001	-1.13555E-004	10	...........	-327.56
	2288	1144.5	6.01453E-001	1.28946E-002	0.00000E+000	6.02200E-001	-1.09621E-004	10	...........	-327.56
	2296	1148.5	5.93475E-001	1.22860E-002	0.00000E+000	5.94200E-001	-1.10688E-004	10	...........	-327.56
	2304	1152.5	5.85465E-001	1.14805E-002	0.00000E+000	5.86200E-001	-1.08755E-004	10	...........	-327.56
	2312	1156.5	5.77482E-001	1.07785E-002	0.00000E+000	5.78200E-001	-1.13921E-004	10	...........	-327.56
	2320	1160.5	5.69503E-001	9.89584E-003	0.00000E+000	5.70200E-001	-1.11988E-004	10	...........	-327.56
	2328	1164.5	5.61505E-001	9.03266E-003	0.00000E+000	5.62200E-001	-1.13821E-004	10	...........	-327.56
	2336	1168.5	5.53522E-001	7.93501E-003	0.00000E+000	5.54200E-001	-1.13121E-004	10	...........	-327.56
	2344	1172.5	5.45552E-001	6.88280E-003	0.00000E+000	5.46200E-001	-1.14155E-004	10	...........	-327.56
	2352	1176.5	5.37541E-001	5.69753E-003	0.00000E+000	5.38200E-001	-1.13921E-004	10	...........	-327.56
	2360	1180.5	5.29543E-001	4.58108E-003	0.00000E+000	5.30200E-001	-1.13988E-004	10	...........	-327.56
	2368	1184.5	5.21603E-001	3.30442E-003	0.00000E+000	5.22200E-001	-1.14888E-004	10	...........	-327.56
	2376	1188.5	5.13449E-001	1.77091E-003	0.00000E+000	5.14200E-001	-1.13921E-004	9	...........	-327.56
	2384	1192.5	5.05571E-001	5.58556E-004	0.00000E+000	5.06200E-001	-1.14855E-004	9	...........	-327.56
	2392	1196.5	4.97832E-001	-8.77701E-004	0.00000E+000	4.98200E-001	-1.11788E-004	9	...........	-327.56
	2400	1200.5	4.89984E-001	-2.19136E-003	0.00000E+000	4.90200E-001	-1.09421E-004	9	...........	-327.56
	2408	1204.5	4.81735E-001	-3.89694E-003	0.00000E+000	4.82200E-001	-1.12021E-004	10	...........	-327.56
	2416	1208.5	4.73734E-001	-5.39752E-003	0.00000E+000	4.74200E-001	-1.10955E-004	10	...........	-327.56
	2424	1212.5	4.65815E-001	-6.94174E-003	0.00000E+000	4.66200E-001	-1.12655E-004	10	...........	-327.56
	2432	1216.5	4.57810E-001	-8.57623E-003	0.00000E+000	4.58200E-001	-1.12688E-004	10	...........	-327.56
	2440	1220.5	4.49790E-001	-1.01582E-002	0.00000E+000	4.50200E-001	-1.13888E-004	10	...........	-327.56
	2448	1224.5	4.41907E-001	-1.17996E-002	0.00000E+000	4.42200E-001	-1.08555E-004	10	...........	-327.56
	2456	1228.5	4.33895E-001	-1.33812E-002	0.00000E+000	4.34200E-001	-1.12955E-004	10	...........	-327.56
	2464	1232.5	4.25880E-001	-1.50253E-002	0.00000E+000	4.26200E-001	-1.09888E-004	10	...........	-327.56
	2472	1236.5	4.17967E-001	-1.66086E-002	0.00000E+000	4.18200E-001	-1.10588E-004	10	...........	-327.56
	2480	1240.5	4.09962E-001	-1.82445E-002	0.00000E+000	4.10200E-001	-1.04155E-004	10	...........	-327.56
	2488	1244.5	4.01963E-001	-1.97437E-002	0.00000E+000	4.02200E-001	-1.08688E-004	10	...........	-327.56
	2496	1248.5	3.94056E-001	-2.12648E-002	0.00000E+000	3.94200E-001	-1.03755E-004	10	...........	-327.56
	2504	1252.5	3.86068E-001	-2.28171E-002	0.00000E+000	3.86200E-001	-1.04555E-004	10	...........	-327.56
	2512	1256.5	3.78036E-001	-2.42159E-002	0.00000E+000	3.78200E-001	-1.02788E-004	10	...........	-327.56
	2520	1260.5	3.70137E-001	-2.57362E-002	0.00000E+000	3.70200E-001	-9.92214E-005	10	...........	-327.56
	2528	1264.5	3.61833E-001	-2.72580E-002	0.00000E+000	3.62200E-001	-1.13355E-004	11	...........	-327.56
	2536	1268.5	3.53801E-001	-2.83327E-002	0.00000E+000	3.54200E-001	-1.13888E-004	11	...........	-327.56
	2544	1272.5	3.45777E-001	-2.95528E-002	0.00000E+000	3.46200E-001	-1.12988E-004	11	...........	-327.56
	2552	1276.5	3.37860E-001	-3.05596E-002	0.00000E+000	3.38200E-001	-1.08988E-004	11	...........	-327.56
	2560	1280.5	3.29822E-001	-3.15166E-002	0.00000E+000	3.30200E-001	-1.12088E-004	11	...........	-327.56
	2568	1284.5	3.21795E-001	-3.24560E-002	0.00000E+000	3.22200E-001	-1.15388E-004	11	...........	-327.56
	2576	1288.5	3.13878E-001	-3.32191E-002	0.00000E+000	3.14200E-001	-1.12388E-004	11	...........	-327.56
	2584	1292.5	3.05887E-001	-3.40304E-002	0.00000E+000	3.06200E-001	-1.11088E-004	11	...........	-327.56
	2592	1296.5	2.97855E-001	-3.46670E-002	0.00000E+000	2.98200E-001	-1.12788E-004	11	...........	-327.56
	2600	1300.5	2.89931E-001	-3.53051E-002	0.00000E+000	2.90200E-001	-1.10855E-004	11	...........	-327.56
	2608	1304.5	2.81917E-001	-3.60136E-002	0.00000E+000	2.82200E-001	-1.12988E-004	11	...........	-327.56
	2616	1308.5	2.73884E-001	-3.65488E-002	0.00000E+000	2.74200E-001	-1.10921E-004	11	...........	-327.56
	2624	1312.5	2.65946E-001	-3.70351E-002	0.00000E+000	2.66200E-001	-1.11588E-004	11	...........	-327.56
	2632	1316.5	2.57948E-001	-3.74926E-002	0.00000E+000	2.58200E-001	-1.13555E-004	11	...........	-327.56
	2640	1320.5	2.49920E-001	-3.79343E-002	0.00000E+000	2.50200E-001	-1.12255E-004	11	...........	-327.56
	2648	1324.5	2.41971E-001	-3.81494E-002	0.00000E+000	2.42200E-001	-1.13321E-004	11	...........	-327.56
	2656	1328.5	2.33964E-001	-3.83782E-002	0.00000E+000	2.34200E-001	-1.12555E-004	11	...........	-327.56
	2664	1332.5	2.25931E-001	-3.84139E-002	0.00000E+000	2.26200E-001	-1.10721E-004	11	...........	-327.56
	2672	1336.5	2.17883E-001	-3.85621E-002	0.00000E+000	2.18200E-001	-1.11655E-004	11	...........	-327.56
	2680	1340.5	2.09990E-001	-3.88119E-002	0.00000E+000	2.10200E-001	-1.10421E-004	11	...........	-327.56
	2688	1344.5	2.01967E-001	-3.90639E-002	0.00000E+000	2.02200E-001	-1.13255E-004	11	...........	-327.56
	2696	1348.5	1.93947E-001	-3.94579E-002	0.00000E+000	1.94200E-001	-1.10021E-004	11	...........	-327.56
	2704	1352.5	1.86028E-001	-3.98228E-002	0.00000E+000	1.86200E-001	-1.11121E-004	11	...........	-327.56
	2712	1356.5	1.77975E-001	-4.03372E-002	0.00000E+000	1.78200E-001	-1.12055E-004	11	...........	-327.56
	2720	1360.5	1.69957E-001	-4.07062E-002	0.00000E+000	1.70200E-001	-1.13588E-004	11	...........	-327.56
	2728	1364.5	1.62045E-001	-4.11256E-002	0.00000E+000	1.62200E-001	-1.12921E-004	11	...........	-327.56
	2736	1368.5	1.53994E-001	-4.16197E-002	0.00000E+000	1.54200E-001	-1.12688E-004	11	...........	-327.56
	2744	1372.5	1.45994E-001	-4.19720E-002	0.00000E+000	1.46200E-001	-1.11421E-004	11	...........	-327.56
	2752	1376.5	1.38067E-001	-4.22405E-002	0.00000E+000	1.38200E-001	-1.09855E-004	11	...........	-327.56
	2760	1380.5	1.30043E-001	-4.24545E-002	0.00000E+000	1.30200E-001	-1.14455E-004	11	...........	-327.56
	2768	1384.5	1.22012E-001	-4.24961E-002	0.00000E+000	1.22200E-001	-1.12288E-004	11	...........	-327.56
	2776	1388.5	1.14081E-001	-4.24813E-002	0.00000E+000	1.14200E-001	-1.08488E-004	11	...........	-327.56
	2784	1392.5	1.06069E-001	-4.24633E-002	0.00000E+000	1.06200E-001	-1.11855E-004	11	...........	-327.56
	2792	1396.5	9.80752E-002	-4.23552E-002	0.00000E+000	9.82000E-002	-1.09755E-004	11	...........	-327.56
	2800	1400.5	9.00250E-002	-4.21108E-002	0.00000E+000	9.02000E-002	-1.12421E-004	11	...........	-327.56
	2808	1404.5	8.21378E-002	-4.18709E-002	0.00000E+000	8.22000E-002	-1.12021E-004	11	...........	-327.56
	2816	1408.5	7.40852E-002	-4.14868E-002	0.00000E+000	7.42000E-002	-1.11288E-004	11	...........	-327.56
	2824	1412.5	6.60568E-002	-4.10088E-002	0.00000E+000	6.62000E-002	-1.12055E-004	11	...........	-327.56
	2832	1416.5	5.81382E-002	-4.04518E-002	0.00000E+000	5.82000E-002	-1.08588E-004	11	...........	-327.56
	2840	1420.5	5.01102E-002	-3.97831E-002	0.00000E+000	5.02000E-002	-1.13288E-004	11	...........	-327.56
	2848	1424.5	4.20765E-002	-3.90890E-002	0.00000E+000	4.22000E-002	-1.08188E-004	11	...........	-327.56
	2856	1428.5	3.41758E-002	-3.83826E-002	0.00000E+000	3.42000E-002	-1.10021E-004	11	...........	-327.56
	2864	1432.5	2.61397E-002	-3.76504E-002	0.00000E+000	2.62000E-002	-1.11155E-004	11	...........	-327.56
	2872	1436.5	1.81206E-002	-3.69168E-002	0.00000E+000	1.82000E-002	-1.08955E-004	11	...........	-327.56
	2880	1440.5	1.01823E-002	-3.61936E-002	0.00000E+000	1.02000E-002	-1.10488E-004	11	...........	-327.56
	2888	1444.5	2.14911E-003	-3.54518E-002	0.00000E+000	2.20004E-003	-1.14455E-004	11	...........	-327.56
	2896	1448.5	-5.67358E-003	-3.47787E-002	0.00000E+000	-5.79998E-003	-1.14488E-004	11	...........	-327.56
	2904	1452.5	-1.36248E-002	-3.40594E-002	0.00000E+000	-1.38000E-002	-1.17821E-004	11	...........	-327.56
	2912	1456.5	-2.16253E-002	-3.33680E-002	0.00000E+000	-2.18000E-002	-1.18021E-004	11	...........	-327.56
	2920	1460.5	-2.96496E-002	-3.26852E-002	0.00000E+000	-2.98000E-002	-1.09688E-004	11	...........	-327.56
	2928	1464.5	-3.77131E-002	-3.20375E-002	0.00000E+000	-3.78000E-002	-1.12688E-004	11	...........	-327.56
	2936	1468.5	-4.56112E-002	-3.14820E-002	0.00000E+000	-4.58000E-002	-1.18421E-004	11	...........	-327.56
	2944	1472.5	-5.36404E-002	-3.09991E-002	0.00000E+000	-5.38000E-002	-1.12321E-004	11	...........	-327.56
[...]
	10011	5006	5.20013E-001	7.09063E-001	0.00000E+000	5.21000E-001	-1.23221E-004	12	...........	-327.56
	10017	5009	5.25926E-001	7.11636E-001	0.00000E+000	5.27000E-001	-1.25255E-004	12	...........	-327.56
	10023	5012	5.31931E-001	7.14796E-001	0.00000E+000	5.33000E-001	-1.14621E-004	12	...........	-327.56
	10029	5015	5.37956E-001	7.19957E-001	0.00000E+000	5.39000E-001	-1.16221E-004	12	...........	-327.56
	10035	5018	5.43983E-001	7.25033E-001	0.00000E+000	5.45000E-001	-1.22188E-004	12	...........	-327.56
	10041	5021	5.49954E-001	7.32221E-001	0.00000E+000	5.51000E-001	-1.19321E-004	12	...........	-327.56
	10047	5024	5.55911E-001	7.37739E-001	0.00000E+000	5.57000E-001	-1.18221E-004	12	...........	-327.56
	10053	5027	5.61921E-001	7.43239E-001	0.00000E+000	5.63000E-001	-1.18255E-004	12	...........	-327.56
	10059	5030	5.67946E-001	7.48812E-001	0.00000E+000	5.69000E-001	-1.18755E-004	12	...........	-327.56
	10065	5033	5.73924E-001	7.53995E-001	0.00000E+000	5.75000E-001	-1.19421E-004	12	...........	-327.56
	10071	5036	5.79866E-001	7.60223E-001	0.00000E+000	5.81000E-001	-1.16155E-004	12	...........	-327.56
	10077	5039	5.85884E-001	7.64830E-001	0.00000E+000	5.87000E-001	-1.20155E-004	12	...........	-327.56
	10083	5042	5.91939E-001	7.69065E-001	0.00000E+000	5.93000E-001	-1.21955E-004	12	...........	-327.56
	10089	5045	5.97914E-001	7.71973E-001	0.00000E+000	5.99000E-001	-1.24221E-004	12	...........	-327.56
	10095	5048	6.03848E-001	7.74572E-001	0.00000E+000	6.05000E-001	-1.18855E-004	12	...........	-327.56
	10101	5051	6.09871E-001	7.78426E-001	0.00000E+000	6.11000E-001	-1.18188E-004	12	...........	-327.56
	10107	5054	6.15908E-001	7.81720E-001	0.00000E+000	6.17000E-001	-1.20288E-004	12	...........	-327.56
	10113	5057	6.21892E-001	7.83966E-001	0.00000E+000	6.23000E-001	-1.18855E-004	12	...........	-327.56
	10119	5060	6.27788E-001	7.85729E-001	0.00000E+000	6.29000E-001	-1.17888E-004	12	...........	-327.56
	10125	5063	6.33831E-001	7.87284E-001	0.00000E+000	6.35000E-001	-1.20088E-004	12	...........	-327.56
	10131	5066	6.39859E-001	7.89204E-001	0.00000E+000	6.41000E-001	-1.21355E-004	12	...........	-327.56
	10137	5069	6.45865E-001	7.90899E-001	0.00000E+000	6.47000E-001	-1.19255E-004	12	...........	-327.56
	10143	5072	6.51864E-001	7.92627E-001	0.00000E+000	6.53000E-001	-1.16655E-004	12	...........	-327.56
	10149	5075	6.57809E-001	7.95708E-001	0.00000E+000	6.59000E-001	-1.18555E-004	12	...........	-327.56
	10155	5078	6.63854E-001	7.99820E-001	0.00000E+000	6.65000E-001	-1.19021E-004	12	...........	-327.56
	10161	5081	6.69833E-001	8.03703E-001	0.00000E+000	6.71000E-001	-1.18221E-004	12	...........	-327.56
	10167	5084	6.75846E-001	8.05294E-001	0.00000E+000	6.77000E-001	-1.14921E-004	12	...........	-327.56
	10173	5087	6.81778E-001	8.04896E-001	0.00000E+000	6.83000E-001	-1.19188E-004	12	...........	-327.56
	10179	5090	6.87818E-001	8.03086E-001	0.00000E+000	6.89000E-001	-1.20455E-004	12	...........	-327.56
	10185	5093	6.93830E-001	7.98217E-001	0.00000E+000	6.95000E-001	-1.21921E-004	12	...........	-327.56
	10191	5096	6.99847E-001	7.91283E-001	0.00000E+000	7.01000E-001	-1.16588E-004	12	...........	-327.56
	10197	5099	7.05756E-001	7.82959E-001	0.00000E+000	7.07000E-001	-1.21555E-004	12	...........	-327.56
	10203	5102	7.11853E-001	7.73156E-001	0.00000E+000	7.13000E-001	-1.17588E-004	12	...........	-327.56
	10209	5105	7.17784E-001	7.60247E-001	0.00000E+000	7.19000E-001	-1.17855E-004	12	...........	-327.56
	10215	5108	7.23814E-001	7.47184E-001	0.00000E+000	7.25000E-001	-1.15688E-004	12	...........	-327.56
	10221	5111	7.29754E-001	7.32376E-001	0.00000E+000	7.31000E-001	-1.21321E-004	12	...........	-327.56
	10227	5114	7.35812E-001	7.15981E-001	0.00000E+000	7.37000E-001	-1.16221E-004	12	...........	-327.56
	10233	5117	7.41797E-001	6.99424E-001	0.00000E+000	7.43000E-001	-1.23555E-004	12	...........	-327.56
	10239	5120	7.47824E-001	6.80855E-001	0.00000E+000	7.49000E-001	-1.18755E-004	12	...........	-327.56
	10245	5123	7.53857E-001	6.61349E-001	0.00000E+000	7.55000E-001	-1.19021E-004	12	...........	-327.56
	10251	5126	7.59875E-001	6.39430E-001	0.00000E+000	7.61000E-001	-1.20155E-004	12	...........	-327.56
	10257	5129	7.65834E-001	6.16128E-001	0.00000E+000	7.67000E-001	-1.24521E-004	12	...........	-327.56
	10263	5132	7.71870E-001	5.91792E-001	0.00000E+000	7.73000E-001	-1.18421E-004	12	...........	-327.56
	10269	5135	7.77901E-001	5.66368E-001	0.00000E+000	7.79000E-001	-1.20121E-004	12	...........	-327.56
	10275	5138	7.83906E-001	5.38202E-001	0.00000E+000	7.85000E-001	-1.18421E-004	12	...........	-327.56
	10281	5141	7.89868E-001	5.10012E-001	0.00000E+000	7.91000E-001	-1.22588E-004	12	...........	-327.56
	10287	5144	7.95925E-001	4.79692E-001	0.00000E+000	7.97000E-001	-1.19821E-004	12	...........	-327.56
	10293	5147	8.01957E-001	4.49866E-001	0.00000E+000	8.03000E-001	-1.21821E-004	12	...........	-327.56
	10299	5150	8.07933E-001	4.19414E-001	0.00000E+000	8.09000E-001	-1.22188E-004	12	...........	-327.56
	10305	5153	8.13925E-001	3.89472E-001	0.00000E+000	8.15000E-001	-1.20221E-004	12	...........	-327.56
	10311	5156	8.19936E-001	3.60847E-001	0.00000E+000	8.21000E-001	-1.16455E-004	12	...........	-327.56
	10317	5159	8.25963E-001	3.34658E-001	0.00000E+000	8.27000E-001	-1.17821E-004	12	...........	-327.56
	10323	5162	8.31980E-001	3.10095E-001	0.00000E+000	8.33000E-001	-1.23088E-004	12	...........	-327.56
	10329	5165	8.37926E-001	2.90273E-001	0.00000E+000	8.39000E-001	-1.18588E-004	12	...........	-327.56
	10335	5168	8.43956E-001	2.71209E-001	0.00000E+000	8.45000E-001	-1.17755E-004	12	...........	-327.56
	10341	5171	8.50015E-001	2.55337E-001	0.00000E+000	8.51000E-001	-1.21255E-004	12	...........	-327.56
	10347	5174	8.56008E-001	2.41352E-001	0.00000E+000	8.57000E-001	-1.20055E-004	12	...........	-327.56
	10353	5177	8.61733E-001	2.30341E-001	0.00000E+000	8.63000E-001	-1.18255E-004	11	...........	-327.56
	10359	5180	8.67756E-001	2.20721E-001	0.00000E+000	8.69000E-001	-1.11688E-004	11	...........	-327.56
	10365	5183	8.73787E-001	2.12497E-001	0.00000E+000	8.75000E-001	-1.20188E-004	11	...........	-327.56
	10371	5186	8.79818E-001	2.05730E-001	0.00000E+000	8.81000E-001	-1.17421E-004	11	...........	-327.56
	10377	5189	8.85724E-001	1.99367E-001	0.00000E+000	8.87000E-001	-1.19421E-004	11	...........	-327.56
	10383	5192	8.91762E-001	1.94303E-001	0.00000E+000	8.93000E-001	-1.18321E-004	11	...........	-327.56
	10389	5195	8.97808E-001	1.89083E-001	0.00000E+000	8.99000E-001	-1.21621E-004	11	...........	-327.56
	10395	5198	9.03839E-001	1.85147E-001	0.00000E+000	9.05000E-001	-1.18521E-004	11	...........	-327.56
	10401	5201	9.09730E-001	1.81951E-001	0.00000E+000	9.11000E-001	-1.21188E-004	11	...........	-327.56
	10407	5204	9.15766E-001	1.79152E-001	0.00000E+000	9.17000E-001	-1.13455E-004	11	...........	-327.56
	10413	5207	9.21766E-001	1.75605E-001	0.00000E+000	9.23000E-001	-1.19788E-004	11	...........	-327.56
	10419	5210	9.27806E-001	1.73216E-001	0.00000E+000	9.29000E-001	-1.17188E-004	11	...........	-327.56
	10425	5213	9.33779E-001	1.71085E-001	0.00000E+000	9.35000E-001	-1.21021E-004	11	...........	-327.56
	10431	5216	9.39736E-001	1.68576E-001	0.00000E+000	9.41000E-001	-1.20488E-004	11	...........	-327.56
	10437	5219	9.45749E-001	1.66810E-001	0.00000E+000	9.47000E-001	-1.19555E-004	11	...........	-327.56
	10443	5222	9.51803E-001	1.65552E-001	0.00000E+000	9.53000E-001	-1.18088E-004	11	...........	-327.56
	10449	5225	9.57788E-001	1.64100E-001	0.00000E+000	9.59000E-001	-1.18855E-004	11	...........	-327.56
	10455	5228	9.63715E-001	1.62254E-001	0.00000E+000	9.65000E-001	-1.19321E-004	11	...........	-327.56
	10461	5231	9.69752E-001	1.60855E-001	0.00000E+000	9.71000E-001	-1.19388E-004	11	...........	-327.56
	10467	5234	9.75781E-001	1.59689E-001	0.00000E+000	9.77000E-001	-1.17088E-004	11	...........	-327.56
	10473	5237	9.81786E-001	1.59080E-001	0.00000E+000	9.83000E-001	-1.20988E-004	11	...........	-327.56
	10479	5240	9.87682E-001	1.57878E-001	0.00000E+000	9.89000E-001	-1.18488E-004	11	...........	-327.56
	10485	5243	9.93562E-001	2.49101E-001	0.00000E+000	9.95000E-001	-1.19355E-004	11	...........	-327.56
	10491	5246	9.99605E-001	2.35914E-001	0.00000E+000	1.00100E+000	-1.14921E-004	11	...........	-327.56
	10497	5249	1.00567E+000	2.14655E-001	0.00000E+000	1.00700E+000	-1.13755E-004	11	...........	-327.56
	10503	5252	1.01159E+000	1.98388E-001	0.00000E+000	1.01300E+000	-1.18288E-004	11	...........	-327.56
	10509	5255	1.01763E+000	1.93094E-001	0.00000E+000	1.01900E+000	-1.19721E-004	11	...........	-327.56
	10515	5258	1.02367E+000	1.82611E-001	0.00000E+000	1.02500E+000	-1.17988E-004	11	...........	-327.56
	10521	5261	1.02965E+000	2.02938E-001	0.00000E+000	1.03100E+000	-1.18988E-004	11	...........	-327.56
	10527	5264	1.03563E+000	2.16351E-001	0.00000E+000	1.03700E+000	-1.18655E-004	11	...........	-327.56
	10533	5267	1.04158E+000	2.03869E-001	0.00000E+000	1.04300E+000	-1.18288E-004	11	...........	-327.56
	10539	5270	1.04758E+000	1.98654E-001	0.00000E+000	1.04900E+000	-1.20321E-004	11	...........	-327.56
	10545	5273	1.05364E+000	2.00997E-001	0.00000E+000	1.05500E+000	-1.19721E-004	11	...........	-327.56
	10551	5276	1.05966E+000	2.02679E-001	0.00000E+000	1.06100E+000	-1.15755E-004	11	...........	-327.56
	10557	5279	1.06555E+000	2.08589E-001	0.00000E+000	1.06700E+000	-1.19255E-004	11	...........	-327.56
	10563	5282	1.07157E+000	2.04763E-001	0.00000E+000	1.07300E+000	-1.12488E-004	11	...........	-327.56
	10569	5285	1.07755E+000	2.37869E-001	0.00000E+000	1.07900E+000	-1.12588E-004	11	...........	-327.56
	10575	5288	1.08358E+000	2.26654E-001	0.00000E+000	1.08500E+000	-1.17421E-004	11	...........	-327.56
	10581	5291	1.08954E+000	2.28716E-001	0.00000E+000	1.09100E+000	-1.20655E-004	11	...........	-327.56
	10587	5294	1.09551E+000	2.29868E-001	0.00000E+000	1.09700E+000	-1.17721E-004	11	...........	-327.56
	10593	5297	1.10152E+000	2.37096E-001	0.00000E+000	1.10300E+000	-1.13188E-004	11	...........	-327.56
	10599	5300	1.10754E+000	2.43457E-001	0.00000E+000	1.10900E+000	-1.15721E-004	11	...........	-327.56
	10605	5303	1.11350E+000	2.56413E-001	0.00000E+000	1.11500E+000	-1.13521E-004	11	...........	-327.56
	10611	5306	1.11944E+000	2.59731E-001	0.00000E+000	1.12100E+000	-1.14555E-004	11	...........	-327.56
	10617	5309	1.12546E+000	2.63478E-001	0.00000E+000	1.12700E+000	-1.16455E-004	11	...........	-327.56
	10623	5312	1.13173E+000	2.73536E-001	0.00000E+000	1.13300E+000	-1.19655E-004	12	...........	-327.56
	10629	5315	1.13772E+000	2.80385E-001	0.00000E+000	1.13900E+000	-1.21655E-004	12	...........	-327.56
	10635	5318	1.14364E+000	2.87872E-001	0.00000E+000	1.14500E+000	-1.23088E-004	12	...........	-327.56
	10641	5321	1.14966E+000	2.96553E-001	0.00000E+000	1.15100E+000	-1.20155E-004	12	...........	-327.56
	10647	5324	1.15568E+000	3.09116E-001	0.00000E+000	1.15700E+000	-1.17521E-004	12	...........	-327.56
	10653	5327	1.16170E+000	3.16325E-001	0.00000E+000	1.16300E+000	-1.22521E-004	12	...........	-327.56
	10659	5330	1.16760E+000	3.27902E-001	0.00000E+000	1.16900E+000	-1.19221E-004	12	...........	-327.56
	10665	5333	1.17361E+000	3.35188E-001	0.00000E+000	1.17500E+000	-1.18988E-004	12	...........	-327.56
	10671	5336	1.17964E+000	3.46065E-001	0.00000E+000	1.18100E+000	-1.18521E-004	12	...........	-327.56
	10677	5339	1.18563E+000	3.56874E-001	0.00000E+000	1.18700E+000	-1.22955E-004	12	...........	-327.56
	10683	5342	1.19154E+000	3.68296E-001	0.00000E+000	1.19300E+000	-1.22021E-004	12	...........	-327.56
	10689	5345	1.19755E+000	3.82350E-001	0.00000E+000	1.19900E+000	-1.23255E-004	12	...........	-327.56
	10695	5348	1.20357E+000	3.92727E-001	0.00000E+000	1.20500E+000	-1.19888E-004	12	...........	-327.56
	10701	5351	1.20959E+000	4.04109E-001	0.00000E+000	1.21100E+000	-1.21388E-004	12	...........	-327.56
	10707	5354	1.21556E+000	4.18128E-001	0.00000E+000	1.21700E+000	-1.19421E-004	12	...........	-327.56
	10713	5357	1.22151E+000	4.29305E-001	0.00000E+000	1.22300E+000	-1.19521E-004	12	...........	-327.56
	10719	5360	1.22753E+000	4.44789E-001	0.00000E+000	1.22900E+000	-1.20055E-004	12	...........	-327.56
	10725	5363	1.23356E+000	4.57554E-001	0.00000E+000	1.23500E+000	-1.21955E-004	12	...........	-327.56
	10731	5366	1.23951E+000	4.74324E-001	0.00000E+000	1.24100E+000	-1.20188E-004	12	...........	-327.56
	10737	5369	1.24543E+000	4.98912E-001	0.00000E+000	1.24700E+000	-1.18555E-004	12	...........	-327.56
	10743	5372	1.25145E+000	5.08550E-001	0.00000E+000	1.25300E+000	-1.19955E-004	12	...........	-327.56
	10749	5375	1.25751E+000	5.21671E-001	0.00000E+000	1.25900E+000	-1.21621E-004	12	...........	-327.56
	10755	5378	1.26346E+000	5.52022E-001	0.00000E+000	1.26500E+000	-1.21555E-004	12	...........	-327.56
	10761	5381	1.26938E+000	5.49327E-001	0.00000E+000	1.27100E+000	-1.22121E-004	12	...........	-327.56
	10767	5384	1.27541E+000	5.60152E-001	0.00000E+000	1.27700E+000	-1.20755E-004	12	...........	-327.56
	10773	5387	1.28145E+000	5.79575E-001	0.00000E+000	1.28300E+000	-1.18688E-004	12	...........	-327.56
	10779	5390	1.28742E+000	5.91662E-001	0.00000E+000	1.28900E+000	-1.18955E-004	12	...........	-327.56
	10785	5393	1.29334E+000	6.08566E-001	0.00000E+000	1.29500E+000	-1.20355E-004	12	...........	-327.56
	10791	5396	1.29936E+000	6.22350E-001	0.00000E+000	1.30100E+000	-1.23421E-004	12	...........	-327.56
	10797	5399	1.30535E+000	6.40035E-001	0.00000E+000	1.30700E+000	-1.19321E-004	12	...........	-327.56
	10803	5402	1.31137E+000	6.66470E-001	0.00000E+000	1.31300E+000	-1.22221E-004	12	...........	-327.56
	10809	5405	1.31735E+000	6.76722E-001	0.00000E+000	1.31900E+000	-1.18321E-004	12	...........	-327.56
	10815	5408	1.32326E+000	7.02767E-001	0.00000E+000	1.32500E+000	-1.22521E-004	12	...........	-327.56
	10821	5411	1.32926E+000	7.32918E-001	0.00000E+000	1.33100E+000	-1.23755E-004	12	...........	-327.56
	10827	5414	1.33523E+000	7.51254E-001	0.00000E+000	1.33700E+000	-1.18121E-004	12	...........	-327.56
	10833	5417	1.34122E+000	7.83488E-001	0.00000E+000	1.34300E+000	-1.18721E-004	12	...........	-327.56
	10839	5420	1.34715E+000	7.97998E-001	0.00000E+000	1.34900E+000	-1.21588E-004	12	...........	-327.56
	10845	5423	1.35314E+000	8.26663E-001	0.00000E+000	1.35500E+000	-1.19355E-004	12	...........	-327.56
	10851	5426	1.35916E+000	8.34754E-001	0.00000E+000	1.36100E+000	-1.18121E-004	12	...........	-327.56
	10857	5429	1.36517E+000	8.35454E-001	0.00000E+000	1.36700E+000	-1.20088E-004	12	...........	-327.56
	10863	5432	1.37113E+000	8.49377E-001	0.00000E+000	1.37300E+000	-1.18888E-004	12	...........	-327.56
	10869	5435	1.37709E+000	8.90771E-001	0.00000E+000	1.37900E+000	-1.20021E-004	12	...........	-327.56
	10875	5438	1.38311E+000	8.95447E-001	0.00000E+000	1.38500E+000	-1.16221E-004	12	...........	-327.56
	10881	5441	1.38912E+000	9.12178E-001	0.00000E+000	1.39100E+000	-1.15855E-004	12	...........	-327.56
	10887	5444	1.39511E+000	9.19540E-001	0.00000E+000	1.39700E+000	-1.16421E-004	12	...........	-327.56
	10893	5447	1.40103E+000	9.33164E-001	0.00000E+000	1.40300E+000	-1.19321E-004	12	...........	-327.56
	10899	5450	1.40704E+000	9.45214E-001	0.00000E+000	1.40900E+000	-1.17021E-004	12	...........	-327.56
	10905	5453	1.41308E+000	9.58932E-001	0.00000E+000	1.41500E+000	-1.21155E-004	12	...........	-327.56
	10911	5456	1.41906E+000	9.84459E-001	0.00000E+000	1.42100E+000	-1.18921E-004	12	...........	-327.56
	10917	5459	1.42497E+000	1.02443E+000	0.00000E+000	1.42700E+000	-1.21588E-004	12	...........	-327.56
	10923	5462	1.43099E+000	1.02229E+000	0.00000E+000	1.43300E+000	-1.20588E-004	12	...........	-327.56
	10929	5465	1.43698E+000	1.05057E+000	0.00000E+000	1.43900E+000	-1.22388E-004	12	...........	-327.56
	10935	5468	1.44299E+000	1.05985E+000	0.00000E+000	1.44500E+000	-1.17121E-004	12	...........	-327.56
	10941	5471	1.44889E+000	1.07654E+000	0.00000E+000	1.45100E+000	-1.18221E-004	12	...........	-327.56
	10947	5474	1.45491E+000	1.09890E+000	0.00000E+000	1.45700E+000	-1.16755E-004	12	...........	-327.56
	10953	5477	1.46093E+000	1.12001E+000	0.00000E+000	1.46300E+000	-1.21055E-004	12	...........	-327.56
	10959	5480	1.46693E+000	1.15630E+000	0.00000E+000	1.46900E+000	-1.15121E-004	12	...........	-327.56
	10965	5483	1.47281E+000	1.15985E+000	0.00000E+000	1.47500E+000	-1.18955E-004	12	...........	-327.56
	10971	5486	1.47883E+000	1.18100E+000	0.00000E+000	1.48100E+000	-1.16088E-004	12	...........	-327.56
	10977	5489	1.48485E+000	1.20034E+000	0.00000E+000	1.48700E+000	-1.20721E-004	12	...........	-327.56
	10983	5492	1.49085E+000	1.21956E+000	0.00000E+000	1.49300E+000	-1.17855E-004	12	...........	-327.56
	10989	5495	1.49685E+000	1.24067E+000	0.00000E+000	1.49900E+000	-1.20121E-004	12	...........	-327.56
	10995	5498	1.50277E+000	1.26137E+000	0.00000E+000	1.50500E+000	-1.18421E-004	12	...........	-327.56
	11001	5501	1.50877E+000	1.28142E+000	0.00000E+000	1.51100E+000	-1.19255E-004	12	...........	-327.56
	11007	5504	1.51478E+000	1.30058E+000	0.00000E+000	1.51700E+000	-1.21055E-004	12	...........	-327.56
	11013	5507	1.52080E+000	1.32290E+000	0.00000E+000	1.52300E+000	-1.22321E-004	12	...........	-327.56
	11019	5510	1.52672E+000	1.34058E+000	0.00000E+000	1.52900E+000	-1.17688E-004	12	...........	-327.56
	11025	5513	1.53275E+000	1.36504E+000	0.00000E+000	1.53500E+000	-1.18621E-004	12	...........	-327.56
	11031	5516	1.53871E+000	1.37792E+000	0.00000E+000	1.54100E+000	-1.18955E-004	12	...........	-327.56
	11037	5519	1.54472E+000	1.39561E+000	0.00000E+000	1.54700E+000	-1.16655E-004	12	...........	-327.56
	11043	5522	1.55061E+000	1.41449E+000	0.00000E+000	1.55300E+000	-1.19988E-004	12	...........	-327.56
	11049	5525	1.55669E+000	1.43701E+000	0.00000E+000	1.55900E+000	-1.21055E-004	12	...........	-327.56
	11055	5528	1.56265E+000	1.45765E+000	0.00000E+000	1.56500E+000	-1.19288E-004	12	...........	-327.56
	11061	5531	1.56868E+000	1.48046E+000	0.00000E+000	1.57100E+000	-1.15188E-004	12	...........	-327.56
	11067	5534	1.57458E+000	1.50589E+000	0.00000E+000	1.57700E+000	-1.20121E-004	12	...........	-327.56
	11073	5537	1.58065E+000	1.53079E+000	0.00000E+000	1.58300E+000	-1.18221E-004	12	...........	-327.56
	11079	5540	1.58660E+000	1.55238E+000	0.00000E+000	1.58900E+000	-1.19621E-004	12	...........	-327.56
	11085	5543	1.59262E+000	1.57583E+000	0.00000E+000	1.59500E+000	-1.14821E-004	12	...........	-327.56
	11091	5546	1.59862E+000	1.59875E+000	0.00000E+000	1.60100E+000	-1.18155E-004	12	...........	-327.56
	11097	5549	1.60458E+000	1.62520E+000	0.00000E+000	1.60700E+000	-1.20888E-004	12	...........	-327.56
	11103	5552	1.61055E+000	1.64551E+000	0.00000E+000	1.61300E+000	-1.21421E-004	12	...........	-327.56
	11109	5555	1.61658E+000	1.66675E+000	0.00000E+000	1.61900E+000	-1.17588E-004	12	...........	-327.56
	11115	5558	1.62257E+000	1.68875E+000	0.00000E+000	1.62500E+000	-1.17255E-004	12	...........	-327.56
	11121	5561	1.62850E+000	1.71337E+000	0.00000E+000	1.63100E+000	-1.17421E-004	12	...........	-327.56
	11127	5564	1.63449E+000	1.73617E+000	0.00000E+000	1.63700E+000	-1.16821E-004	12	...........	-327.56
	11133	5567	1.64048E+000	1.75665E+000	0.00000E+000	1.64300E+000	-1.17588E-004	12	...........	-327.56
	11139	5570	1.64651E+000	1.77631E+000	0.00000E+000	1.64900E+000	-1.15255E-004	12	...........	-327.56
	11145	5573	1.65241E+000	1.79434E+000	0.00000E+000	1.65500E+000	-1.18455E-004	12	...........	-327.56
	11151	5576	1.65844E+000	1.82311E+000	0.00000E+000	1.66100E+000	-1.15421E-004	12	...........	-327.56
	11157	5579	1.66444E+000	1.83653E+000	0.00000E+000	1.66700E+000	-1.16488E-004	12	...........	-327.56
	11163	5582	1.67047E+000	1.84617E+000	0.00000E+000	1.67300E+000	-1.20988E-004	12	...........	-327.56
	11169	5585	1.67647E+000	1.87521E+000	0.00000E+000	1.67900E+000	-1.14588E-004	12	...........	-327.56
	11175	5588	1.68239E+000	1.89990E+000	0.00000E+000	1.68500E+000	-1.17021E-004	12	...........	-327.56
	11181	5591	1.68840E+000	1.91925E+000	0.00000E+000	1.69100E+000	-1.17288E-004	12	...........	-327.56
	11187	5594	1.69445E+000	1.94792E+000	0.00000E+000	1.69700E+000	-1.18788E-004	12	...........	-327.56
	11190	5595.5	1.69747E+000	1.95959E+000	0.00000E+000	1.70000E+000	-1.19388E-004	12	...........	-327.56