File: testing/data/240902_05_MCL13_cswWE_CV2_750C_CO2.DTA
EXPLAIN
TAG	CV
TITLE	LABEL	Cyclic Voltammetry	Test Identifier
DATE	LABEL	9/2/2024	Date
TIME	LABEL	19:13:43	Time
NOTES	NOTES	5	Notes...
	cswWE - carbon steel wire
cspWE - carbon steel plate 2x2 tapered

Carbon steel plate counter electrode
Carbon steel wire reference electrode
PSTAT	PSTAT	REF3000-48128	Potentiostat
VINIT	POTEN	0.00000E+000	T	Initial E (V)
VLIMIT1	POTEN	1.70000E+000	F	Scan Limit 1 (V)
VLIMIT2	POTEN	-8.00000E-001	F	Scan Limit 2 (V)
VFINAL	POTEN	1.70000E+000	F	Final E (V)
SCANRATE	QUANT	2.00000E+000	Scan Rate (mV/s)
STEPSIZE	QUANT	1.00000E+000	Step Size (mV)
CYCLES	IQUANT	2	Cycles (#)
IMODE	SELECTOR	0	I/E Range Mode
IRANGE	QUANT	3.00000E-001	Max Current (mA)
AREA	QUANT	1.00000E+000	Sample Area (cm^2)
EQDELAY	QUANT	0.00000E+000	Equil. Time (s)
IRCOMP	SELECTOR	0	IRComp
PFCOR	QUANT	5.00000E+001	PF Corr. (ohm)
SAMPLINGMODE	SELECTOR	1	Sampling Mode
EOC	QUANT	0.4521599	Open Circuit (V)
ELECTRODETYPE	SELECTOR	0	Electrode Type
STRIPPING	TOGGLE	F	Used for Stripping
SEQUENCER	TOGGLE	TRUE	Run as Sequence
PSTATMODEL	IQUANT	5	Pstat Model
PSTATSECTION	LABEL	REF3000-48128	Pstat Section
PSTATSERIALNO	LABEL	48128	Pstat Serial Number
CTRLMODE	IQUANT	1	Control Mode
ELECTROMETER	IQUANT	0	RE=0 or CS=1
IESTAB	IQUANT	2	I/E Stability
CASPEED	IQUANT	4	Control Amp Speed
CONVENTION	IQUANT	1	Current Convention
ICHRANGE	IQUANT	2	Ich Range
ICHRANGEMODE	TOGGLE	F	Ich Auto Range
ICHOFFSETENABLE	TOGGLE	F	Ich Offset Enable
ICHOFFSET	QUANT	0	Ich Offset (V)
ICHFILTER	IQUANT	3	Ich Filter
VCHRANGE	IQUANT	2	Vch Range
VCHRANGEMODE	TOGGLE	F	Vch Auto Range
VCHOFFSETENABLE	TOGGLE	F	Vch Offset Enable
VCHOFFSET	QUANT	0	Vch Offset (V)
VCHFILTER	IQUANT	3	Vch Filter
ACHRANGE	IQUANT	2	Ach Range
ACHOFFSETENABLE	TOGGLE	F	Ach Offset Enable
ACHOFFSET	QUANT	0	Ach Offset (V)
ACHFILTER	IQUANT	1	Ach Filter
IERANGELOWERLIMIT	IQUANT	2	I/E Range Lower Limit
IERANGEMODE	TOGGLE	T	I/E AutoRange
IERANGE	IQUANT	9	I/E Range
POSFEEDENABLE	TOGGLE	F	Positive Feedback IR Comp
POSFEEDRESISTANCE	QUANT	0	Positive Feedback Resistance (ohm)
ACHSELECT	IQUANT	4	Ach Select
SENSECABLEID	IQUANT	14	Sense Cable ID
PWRCABLEID	IQUANT	7	Power Cable ID
DCCALDATE	LABEL	8/16/2024	DC Calibration Date
ACCALDATE	LABEL	8/16/2024	AC Calibration Date
THERMOSELECT	IQUANT	1	Thermo Select
FRAMEWORKVERSION	LABEL	7.10.3	Framework Version
INSTRUMENTVERSION	LABEL	4.91	Instrument Version
COMMVERSION	LABEL	5.10	Communications Version
CPUPLDVERSION	LABEL	6.00	CPU PLD Version
CTRLPLDVERSION	LABEL	3.21	CTRL PLD Version
PSTATPLDVERSION	LABEL	0.00	PSTAT PLD Version
COMPLIANCEVOLTAGE	IQUANT	0	Compliance Voltage
CURVE1	TABLE
	Pt	T	Vf	Im	Vu	Sig	Ach	IERange	Over	Temp
	#	s	V vs. Ref.	A	V	V	V	#	bits	deg C
	0	0.5	4.51431E-001	1.09690E-003	0.00000E+000	4.52150E-001	-7.74881E-005	9	...........	-327.56
	8	4.5	4.59518E-001	6.45146E-003	0.00000E+000	4.60150E-001	-7.74548E-005	10	...........	-327.56
	16	8.5	4.67501E-001	1.02376E-002	0.00000E+000	4.68150E-001	-7.86881E-005	10	...........	-327.56
	24	12.5	4.75345E-001	1.35236E-002	0.00000E+000	4.76150E-001	-8.03548E-005	10	...........	-327.56
	32	16.5	4.83365E-001	1.62371E-002	0.00000E+000	4.84150E-001	-7.81881E-005	10	...........	-327.56
	40	20.5	4.91375E-001	1.84567E-002	0.00000E+000	4.92150E-001	-8.02881E-005	10	...........	-327.56
	48	24.5	4.99300E-001	2.05696E-002	0.00000E+000	5.00150E-001	-8.72214E-005	10	...........	-327.56
	56	28.5	5.07230E-001	2.23798E-002	0.00000E+000	5.08150E-001	-9.25881E-005	10	...........	-327.56
	64	32.5	5.15208E-001	2.40022E-002	0.00000E+000	5.16150E-001	-9.09881E-005	10	...........	-327.56
	72	36.5	5.23212E-001	2.55142E-002	0.00000E+000	5.24150E-001	-8.94214E-005	10	...........	-327.56
	80	40.5	5.31436E-001	2.71439E-002	0.00000E+000	5.32150E-001	-9.02548E-005	11	...........	-327.56
	88	44.5	5.39491E-001	2.82761E-002	0.00000E+000	5.40150E-001	-9.13214E-005	11	...........	-327.56
	96	48.5	5.47491E-001	2.91859E-002	0.00000E+000	5.48150E-001	-9.05881E-005	11	...........	-327.56
	104	52.5	5.55424E-001	3.01126E-002	0.00000E+000	5.56150E-001	-8.90881E-005	11	...........	-327.56
	112	56.5	5.63438E-001	3.11060E-002	0.00000E+000	5.64150E-001	-8.77548E-005	11	...........	-327.56
	120	60.5	5.71471E-001	3.18865E-002	0.00000E+000	5.72150E-001	-8.89548E-005	11	...........	-327.56
	128	64.5	5.79375E-001	3.25815E-002	0.00000E+000	5.80150E-001	-8.91881E-005	11	...........	-327.56
	136	68.5	5.87411E-001	3.29674E-002	0.00000E+000	5.88150E-001	-8.93881E-005	11	...........	-327.56
	144	72.5	5.95449E-001	3.32075E-002	0.00000E+000	5.96150E-001	-8.91881E-005	11	...........	-327.56
	152	76.5	6.03335E-001	3.35935E-002	0.00000E+000	6.04150E-001	-9.14548E-005	11	...........	-327.56
	160	80.5	6.11392E-001	3.40001E-002	0.00000E+000	6.12150E-001	-8.94881E-005	11	...........	-327.56
	168	84.5	6.19408E-001	3.41721E-002	0.00000E+000	6.20150E-001	-9.25214E-005	11	...........	-327.56
	176	88.5	6.27347E-001	3.43082E-002	0.00000E+000	6.28150E-001	-9.00881E-005	11	...........	-327.56
	184	92.5	6.35361E-001	3.44684E-002	0.00000E+000	6.36150E-001	-9.34548E-005	11	...........	-327.56
	192	96.5	6.43401E-001	3.45685E-002	0.00000E+000	6.44150E-001	-9.23214E-005	11	...........	-327.56
	200	100.5	6.51403E-001	3.44390E-002	0.00000E+000	6.52150E-001	-9.11548E-005	11	...........	-327.56
	208	104.5	6.59334E-001	3.43949E-002	0.00000E+000	6.60150E-001	-9.30881E-005	11	...........	-327.56
	216	108.5	6.67360E-001	3.42212E-002	0.00000E+000	6.68150E-001	-9.24881E-005	11	...........	-327.56
	224	112.5	6.75377E-001	3.41209E-002	0.00000E+000	6.76150E-001	-9.03881E-005	11	...........	-327.56
	232	116.5	6.83285E-001	3.41580E-002	0.00000E+000	6.84150E-001	-9.11214E-005	11	...........	-327.56
	240	120.5	6.91307E-001	3.40099E-002	0.00000E+000	6.92150E-001	-8.94881E-005	11	...........	-327.56
	248	124.5	6.99363E-001	3.38314E-002	0.00000E+000	7.00150E-001	-9.38881E-005	11	...........	-327.56
	256	128.5	7.07230E-001	3.36459E-002	0.00000E+000	7.08150E-001	-9.05548E-005	11	...........	-327.56
	264	132.5	7.15300E-001	3.33688E-002	0.00000E+000	7.16150E-001	-9.24881E-005	11	...........	-327.56
	272	136.5	7.23280E-001	3.29869E-002	0.00000E+000	7.24150E-001	-9.02548E-005	11	...........	-327.56
	280	140.5	7.31171E-001	3.25800E-002	0.00000E+000	7.32150E-001	-9.30548E-005	11	...........	-327.56
	288	144.5	7.39223E-001	3.21948E-002	0.00000E+000	7.40150E-001	-9.31214E-005	11	...........	-327.56
	296	148.5	7.47280E-001	3.18157E-002	0.00000E+000	7.48150E-001	-9.44548E-005	11	...........	-327.56
	304	152.5	7.55247E-001	3.15017E-002	0.00000E+000	7.56150E-001	-8.96881E-005	11	...........	-327.56
	312	156.5	7.63201E-001	3.10276E-002	0.00000E+000	7.64150E-001	-9.09881E-005	11	...........	-327.56
	320	160.5	7.71242E-001	3.07654E-002	0.00000E+000	7.72150E-001	-9.02881E-005	11	...........	-327.56
	328	164.5	7.79264E-001	3.04774E-002	0.00000E+000	7.80150E-001	-9.54214E-005	11	...........	-327.56
	336	168.5	7.87163E-001	2.99919E-002	0.00000E+000	7.88150E-001	-9.08214E-005	11	...........	-327.56
	344	172.5	7.95212E-001	2.96741E-002	0.00000E+000	7.96150E-001	-9.34214E-005	11	...........	-327.56
	352	176.5	8.03264E-001	2.93931E-002	0.00000E+000	8.04150E-001	-8.98548E-005	11	...........	-327.56
	360	180.5	8.11156E-001	2.89629E-002	0.00000E+000	8.12150E-001	-9.50214E-005	11	...........	-327.56
	368	184.5	8.19169E-001	2.87078E-002	0.00000E+000	8.20150E-001	-9.19548E-005	11	...........	-327.56
	376	188.5	8.27188E-001	2.84321E-002	0.00000E+000	8.28150E-001	-9.39214E-005	11	...........	-327.56
	384	192.5	8.35138E-001	2.80815E-002	0.00000E+000	8.36150E-001	-9.18548E-005	11	...........	-327.56
	392	196.5	8.43151E-001	2.79448E-002	0.00000E+000	8.44150E-001	-9.25881E-005	11	...........	-327.56
	400	200.5	8.51175E-001	2.76155E-002	0.00000E+000	8.52150E-001	-9.10548E-005	11	...........	-327.56
	408	204.5	8.59135E-001	2.73386E-002	0.00000E+000	8.60150E-001	-9.42881E-005	11	...........	-327.56
	416	208.5	8.67139E-001	2.72702E-002	0.00000E+000	8.68150E-001	-9.06548E-005	11	...........	-327.56
	424	212.5	8.75158E-001	2.70660E-002	0.00000E+000	8.76150E-001	-9.27548E-005	11	...........	-327.56
	432	216.5	8.83161E-001	2.68951E-002	0.00000E+000	8.84150E-001	-9.50548E-005	11	...........	-327.56
	440	220.5	8.91131E-001	2.68472E-002	0.00000E+000	8.92150E-001	-9.43881E-005	11	...........	-327.56
	448	224.5	8.99139E-001	2.66707E-002	0.00000E+000	9.00150E-001	-9.19214E-005	11	...........	-327.56
	456	228.5	9.07138E-001	2.64809E-002	0.00000E+000	9.08150E-001	-9.22214E-005	11	...........	-327.56
	464	232.5	9.15127E-001	2.64160E-002	0.00000E+000	9.16150E-001	-9.31881E-005	11	...........	-327.56
	472	236.5	9.23111E-001	2.63238E-002	0.00000E+000	9.24150E-001	-9.37214E-005	11	...........	-327.56
	480	240.5	9.31095E-001	2.62371E-002	0.00000E+000	9.32150E-001	-9.14548E-005	11	...........	-327.56
	488	244.5	9.39097E-001	2.61466E-002	0.00000E+000	9.40150E-001	-9.20548E-005	11	...........	-327.56
	496	248.5	9.47066E-001	2.62635E-002	0.00000E+000	9.48150E-001	-9.18214E-005	11	...........	-327.56
	504	252.5	9.55094E-001	2.64858E-002	0.00000E+000	9.56150E-001	-8.99214E-005	11	...........	-327.56
	512	256.5	9.63057E-001	2.67013E-002	0.00000E+000	9.64150E-001	-9.36214E-005	11	...........	-327.56
	520	260.5	9.71061E-001	2.69248E-002	0.00000E+000	9.72150E-001	-8.97548E-005	11	...........	-327.56
	528	264.5	9.79066E-001	2.75223E-002	0.00000E+000	9.80150E-001	-9.10881E-005	11	...........	-327.56
	536	268.5	9.87028E-001	2.82391E-002	0.00000E+000	9.88150E-001	-9.25548E-005	11	...........	-327.56
	544	272.5	9.95037E-001	2.91816E-002	0.00000E+000	9.96150E-001	-8.87881E-005	11	...........	-327.56
	552	276.5	1.00305E+000	3.03362E-002	0.00000E+000	1.00415E+000	-8.83548E-005	11	...........	-327.56
	560	280.5	1.01101E+000	3.18477E-002	0.00000E+000	1.01215E+000	-9.24548E-005	11	...........	-327.56
	568	284.5	1.01902E+000	3.36502E-002	0.00000E+000	1.02015E+000	-9.33881E-005	11	...........	-327.56
	576	288.5	1.02700E+000	3.55636E-002	0.00000E+000	1.02815E+000	-8.75214E-005	11	...........	-327.56
	584	292.5	1.03499E+000	3.77945E-002	0.00000E+000	1.03615E+000	-8.90548E-005	11	...........	-327.56
	592	296.5	1.04295E+000	4.04786E-002	0.00000E+000	1.04415E+000	-8.86881E-005	11	...........	-327.56
	600	300.5	1.05097E+000	4.35043E-002	0.00000E+000	1.05215E+000	-9.28881E-005	11	...........	-327.56
	608	304.5	1.05896E+000	4.65328E-002	0.00000E+000	1.06015E+000	-9.17881E-005	11	...........	-327.56
	616	308.5	1.06689E+000	4.98954E-002	0.00000E+000	1.06815E+000	-9.12548E-005	11	...........	-327.56
	624	312.5	1.07489E+000	5.34975E-002	0.00000E+000	1.07615E+000	-8.99881E-005	11	...........	-327.56
	632	316.5	1.08291E+000	5.71437E-002	0.00000E+000	1.08415E+000	-9.11881E-005	11	...........	-327.56
	640	320.5	1.09082E+000	6.12798E-002	0.00000E+000	1.09215E+000	-8.85548E-005	11	...........	-327.56
	648	324.5	1.09884E+000	6.58486E-002	0.00000E+000	1.10015E+000	-9.01548E-005	11	...........	-327.56
	656	328.5	1.10686E+000	7.05052E-002	0.00000E+000	1.10815E+000	-8.92881E-005	11	...........	-327.56
	664	332.5	1.11478E+000	7.53224E-002	0.00000E+000	1.11615E+000	-9.34214E-005	11	...........	-327.56
	672	336.5	1.12281E+000	8.01284E-002	0.00000E+000	1.12415E+000	-8.99548E-005	11	...........	-327.56
	680	340.5	1.13078E+000	8.51763E-002	0.00000E+000	1.13215E+000	-9.16881E-005	11	...........	-327.56
	688	344.5	1.13877E+000	9.03754E-002	0.00000E+000	1.14015E+000	-8.94214E-005	11	...........	-327.56
	696	348.5	1.14670E+000	9.63066E-002	0.00000E+000	1.14815E+000	-9.26881E-005	11	...........	-327.56
	704	352.5	1.15472E+000	1.01925E-001	0.00000E+000	1.15615E+000	-8.82214E-005	11	...........	-327.56
	712	356.5	1.16273E+000	1.08276E-001	0.00000E+000	1.16415E+000	-8.93214E-005	11	...........	-327.56
	720	360.5	1.17067E+000	1.14578E-001	0.00000E+000	1.17215E+000	-9.07548E-005	11	...........	-327.56
	728	364.5	1.17867E+000	1.21139E-001	0.00000E+000	1.18015E+000	-8.95881E-005	11	...........	-327.56
	736	368.5	1.18666E+000	1.27850E-001	0.00000E+000	1.18815E+000	-8.64548E-005	11	...........	-327.56
	744	372.5	1.19461E+000	1.34907E-001	0.00000E+000	1.19615E+000	-9.30214E-005	11	...........	-327.56
	752	376.5	1.20261E+000	1.42454E-001	0.00000E+000	1.20415E+000	-8.92214E-005	11	...........	-327.56
	760	380.5	1.21063E+000	1.50459E-001	0.00000E+000	1.21215E+000	-8.89548E-005	11	...........	-327.56
	768	384.5	1.21856E+000	1.59269E-001	0.00000E+000	1.22015E+000	-9.11548E-005	11	...........	-327.56
	776	388.5	1.22657E+000	1.68402E-001	0.00000E+000	1.22815E+000	-9.21881E-005	11	...........	-327.56
	784	392.5	1.23459E+000	1.78421E-001	0.00000E+000	1.23615E+000	-8.94881E-005	11	...........	-327.56
	792	396.5	1.24248E+000	1.88393E-001	0.00000E+000	1.24415E+000	-8.98881E-005	11	...........	-327.56
	800	400.5	1.25049E+000	1.99159E-001	0.00000E+000	1.25215E+000	-8.90214E-005	11	...........	-327.56
	808	404.5	1.25852E+000	2.09980E-001	0.00000E+000	1.26015E+000	-9.11214E-005	11	...........	-327.56
	816	408.5	1.26648E+000	2.21161E-001	0.00000E+000	1.26815E+000	-8.82881E-005	11	...........	-327.56
	824	412.5	1.27439E+000	2.33221E-001	0.00000E+000	1.27615E+000	-8.80548E-005	11	...........	-327.56
	832	416.5	1.28240E+000	2.45738E-001	0.00000E+000	1.28415E+000	-8.92548E-005	11	...........	-327.56
	840	420.5	1.29040E+000	2.58524E-001	0.00000E+000	1.29215E+000	-8.90214E-005	11	...........	-327.56
	848	424.5	1.29860E+000	2.72766E-001	0.00000E+000	1.30015E+000	-9.02548E-005	12	...........	-327.56
	856	428.5	1.30663E+000	2.85741E-001	0.00000E+000	1.30815E+000	-9.34214E-005	12	...........	-327.56
	864	432.5	1.31462E+000	2.99573E-001	0.00000E+000	1.31615E+000	-9.17214E-005	12	...........	-327.56
	872	436.5	1.32256E+000	3.14451E-001	0.00000E+000	1.32415E+000	-9.48881E-005	12	...........	-327.56
	880	440.5	1.33058E+000	3.29531E-001	0.00000E+000	1.33215E+000	-9.30881E-005	12	...........	-327.56
	888	444.5	1.33855E+000	3.44945E-001	0.00000E+000	1.34015E+000	-9.45214E-005	12	...........	-327.56
	896	448.5	1.34645E+000	3.60873E-001	0.00000E+000	1.34815E+000	-9.28881E-005	12	...........	-327.56
	904	452.5	1.35447E+000	3.77348E-001	0.00000E+000	1.35615E+000	-9.66548E-005	12	...........	-327.56
	912	456.5	1.36251E+000	3.94586E-001	0.00000E+000	1.36415E+000	-9.05548E-005	12	...........	-327.56
	920	460.5	1.37039E+000	4.11704E-001	0.00000E+000	1.37215E+000	-9.53214E-005	12	...........	-327.56
	928	464.5	1.37841E+000	4.29615E-001	0.00000E+000	1.38015E+000	-9.16214E-005	12	...........	-327.56
	936	468.5	1.38644E+000	4.47320E-001	0.00000E+000	1.38815E+000	-9.42548E-005	12	...........	-327.56
	944	472.5	1.39441E+000	4.65502E-001	0.00000E+000	1.39615E+000	-9.16548E-005	12	...........	-327.56
	952	476.5	1.40235E+000	4.84059E-001	0.00000E+000	1.40415E+000	-8.91548E-005	12	...........	-327.56
	960	480.5	1.41038E+000	5.03301E-001	0.00000E+000	1.41215E+000	-9.31548E-005	12	...........	-327.56
	968	484.5	1.41837E+000	5.21808E-001	0.00000E+000	1.42015E+000	-8.95881E-005	12	...........	-327.56
	976	488.5	1.42631E+000	5.40760E-001	0.00000E+000	1.42815E+000	-9.15548E-005	12	...........	-327.56
	984	492.5	1.43430E+000	5.59310E-001	0.00000E+000	1.43615E+000	-9.01214E-005	12	...........	-327.56
	992	496.5	1.44231E+000	5.77104E-001	0.00000E+000	1.44415E+000	-8.98214E-005	12	...........	-327.56
	1000	500.5	1.45022E+000	5.98625E-001	0.00000E+000	1.45215E+000	-8.86214E-005	12	...........	-327.56
	1008	504.5	1.45822E+000	6.17214E-001	0.00000E+000	1.46015E+000	-8.80214E-005	12	...........	-327.56
	1016	508.5	1.46626E+000	6.38322E-001	0.00000E+000	1.46815E+000	-8.70548E-005	12	...........	-327.56
	1024	512.5	1.47416E+000	6.55966E-001	0.00000E+000	1.47615E+000	-9.03548E-005	12	...........	-327.56
	1032	516.5	1.48217E+000	6.77163E-001	0.00000E+000	1.48415E+000	-8.48881E-005	12	...........	-327.56
	1040	520.5	1.49020E+000	6.99091E-001	0.00000E+000	1.49215E+000	-8.76881E-005	12	...........	-327.56
	1048	524.5	1.49809E+000	7.15346E-001	0.00000E+000	1.50015E+000	-8.69548E-005	12	...........	-327.56
	1056	528.5	1.50613E+000	7.38426E-001	0.00000E+000	1.50815E+000	-8.70881E-005	12	...........	-327.56
	1064	532.5	1.51413E+000	7.60204E-001	0.00000E+000	1.51615E+000	-8.59214E-005	12	...........	-327.56
	1072	536.5	1.52212E+000	7.79434E-001	0.00000E+000	1.52415E+000	-8.88881E-005	12	...........	-327.56
	1080	540.5	1.53004E+000	8.02747E-001	0.00000E+000	1.53215E+000	-8.90881E-005	12	...........	-327.56
	1088	544.5	1.53802E+000	8.22235E-001	0.00000E+000	1.54015E+000	-9.19881E-005	12	...........	-327.56
	1096	548.5	1.54602E+000	8.47320E-001	0.00000E+000	1.54815E+000	-9.07548E-005	12	...........	-327.56
	1104	552.5	1.55395E+000	8.68081E-001	0.00000E+000	1.55615E+000	-9.31881E-005	12	...........	-327.56
	1112	556.5	1.56196E+000	8.88610E-001	0.00000E+000	1.56415E+000	-8.94214E-005	12	...........	-327.56
	1120	560.5	1.56998E+000	9.07450E-001	0.00000E+000	1.57215E+000	-9.10548E-005	12	...........	-327.56
	1128	564.5	1.57788E+000	9.30508E-001	0.00000E+000	1.58015E+000	-8.82214E-005	12	...........	-327.56
	1136	568.5	1.58589E+000	9.51351E-001	0.00000E+000	1.58815E+000	-8.85214E-005	12	...........	-327.56
	1144	572.5	1.59391E+000	9.74180E-001	0.00000E+000	1.59615E+000	-8.87548E-005	12	...........	-327.56
	1152	576.5	1.60180E+000	9.96439E-001	0.00000E+000	1.60415E+000	-8.95548E-005	12	...........	-327.56
	1160	580.5	1.60984E+000	1.01584E+000	0.00000E+000	1.61215E+000	-8.96881E-005	12	...........	-327.56
	1168	584.5	1.61786E+000	1.04146E+000	0.00000E+000	1.62015E+000	-8.98214E-005	12	...........	-327.56
	1176	588.5	1.62578E+000	1.06134E+000	0.00000E+000	1.62815E+000	-8.74881E-005	12	...........	-327.56
	1184	592.5	1.63378E+000	1.08159E+000	0.00000E+000	1.63615E+000	-8.90548E-005	12	...........	-327.56
	1192	596.5	1.64180E+000	1.10153E+000	0.00000E+000	1.64415E+000	-8.89214E-005	12	...........	-327.56
	1200	600.5	1.64979E+000	1.12398E+000	0.00000E+000	1.65215E+000	-8.90881E-005	12	...........	-327.56
	1208	604.5	1.65773E+000	1.14244E+000	0.00000E+000	1.66015E+000	-9.06881E-005	12	...........	-327.56
	1216	608.5	1.66574E+000	1.16389E+000	0.00000E+000	1.66815E+000	-8.87548E-005	12	...........	-327.56
	1224	612.5	1.67374E+000	1.18610E+000	0.00000E+000	1.67615E+000	-8.75881E-005	12	...........	-327.56
	1232	616.5	1.68163E+000	1.20365E+000	0.00000E+000	1.68415E+000	-9.26214E-005	12	...........	-327.56
	1240	620.5	1.68968E+000	1.22513E+000	0.00000E+000	1.69215E+000	-9.00548E-005	12	...........	-327.56
	1248	624.5	1.69770E+000	1.25207E+000	0.00000E+000	1.70015E+000	-9.41548E-005	12	...........	-327.56
	1256	628.5	1.68964E+000	1.23651E+000	0.00000E+000	1.69215E+000	-9.02881E-005	12	...........	-327.56
	1264	632.5	1.68163E+000	1.22131E+000	0.00000E+000	1.68415E+000	-9.18214E-005	12	...........	-327.56
	1272	636.5	1.67375E+000	1.20489E+000	0.00000E+000	1.67615E+000	-8.73548E-005	12	...........	-327.56
	1280	640.5	1.66572E+000	1.18949E+000	0.00000E+000	1.66815E+000	-9.17881E-005	12	...........	-327.56
	1288	644.5	1.65769E+000	1.17372E+000	0.00000E+000	1.66015E+000	-9.01214E-005	12	...........	-327.56
	1296	648.5	1.64977E+000	1.16004E+000	0.00000E+000	1.65215E+000	-9.14214E-005	12	...........	-327.56
	1304	652.5	1.64178E+000	1.13364E+000	0.00000E+000	1.64415E+000	-8.76881E-005	12	...........	-327.56
	1312	656.5	1.63377E+000	1.12271E+000	0.00000E+000	1.63615E+000	-9.28881E-005	12	...........	-327.56
	1320	660.5	1.62577E+000	1.10105E+000	0.00000E+000	1.62815E+000	-9.24548E-005	12	...........	-327.56
	1328	664.5	1.61784E+000	1.08258E+000	0.00000E+000	1.62015E+000	-9.03214E-005	12	...........	-327.56
	1336	668.5	1.60981E+000	1.06452E+000	0.00000E+000	1.61215E+000	-8.87214E-005	12	...........	-327.56
	1344	672.5	1.60175E+000	1.04904E+000	0.00000E+000	1.60415E+000	-8.92881E-005	12	...........	-327.56
	1352	676.5	1.59388E+000	1.02895E+000	0.00000E+000	1.59615E+000	-8.86214E-005	12	...........	-327.56
	1360	680.5	1.58586E+000	1.01059E+000	0.00000E+000	1.58815E+000	-8.96881E-005	12	...........	-327.56
	1368	684.5	1.57784E+000	9.93041E-001	0.00000E+000	1.58015E+000	-8.75881E-005	12	...........	-327.56
	1376	688.5	1.56994E+000	9.73242E-001	0.00000E+000	1.57215E+000	-8.92214E-005	12	...........	-327.56
	1384	692.5	1.56192E+000	9.53562E-001	0.00000E+000	1.56415E+000	-8.69881E-005	12	...........	-327.56
	1392	696.5	1.55391E+000	9.36208E-001	0.00000E+000	1.55615E+000	-9.10214E-005	12	...........	-327.56
	1400	700.5	1.54598E+000	9.10867E-001	0.00000E+000	1.54815E+000	-8.82214E-005	12	...........	-327.56
	1408	704.5	1.53799E+000	8.95758E-001	0.00000E+000	1.54015E+000	-8.91214E-005	12	...........	-327.56
	1416	708.5	1.53001E+000	8.69460E-001	0.00000E+000	1.53215E+000	-8.65548E-005	12	...........	-327.56
	1424	712.5	1.52208E+000	8.52677E-001	0.00000E+000	1.52415E+000	-8.96548E-005	12	...........	-327.56
	1432	716.5	1.51410E+000	8.36195E-001	0.00000E+000	1.51615E+000	-8.72214E-005	12	...........	-327.56
	1440	720.5	1.50606E+000	8.17895E-001	0.00000E+000	1.50815E+000	-9.16548E-005	12	...........	-327.56
	1448	724.5	1.49804E+000	7.99432E-001	0.00000E+000	1.50015E+000	-8.92881E-005	12	...........	-327.56
	1456	728.5	1.49014E+000	7.83617E-001	0.00000E+000	1.49215E+000	-8.93548E-005	12	...........	-327.56
	1464	732.5	1.48213E+000	7.64898E-001	0.00000E+000	1.48415E+000	-8.92881E-005	12	...........	-327.56
	1472	736.5	1.47412E+000	7.48487E-001	0.00000E+000	1.47615E+000	-9.19214E-005	12	...........	-327.56
	1480	740.5	1.46620E+000	7.29544E-001	0.00000E+000	1.46815E+000	-8.81214E-005	12	...........	-327.56
	1488	744.5	1.45817E+000	7.11473E-001	0.00000E+000	1.46015E+000	-9.03214E-005	12	...........	-327.56
	1496	748.5	1.45017E+000	6.91384E-001	0.00000E+000	1.45215E+000	-9.32214E-005	12	...........	-327.56
	1504	752.5	1.44225E+000	6.74448E-001	0.00000E+000	1.44415E+000	-8.99214E-005	12	...........	-327.56
	1512	756.5	1.43425E+000	6.54869E-001	0.00000E+000	1.43615E+000	-9.03548E-005	12	...........	-327.56
	1520	760.5	1.42625E+000	6.37079E-001	0.00000E+000	1.42815E+000	-9.17214E-005	12	...........	-327.56
	1528	764.5	1.41832E+000	6.17269E-001	0.00000E+000	1.42015E+000	-8.57881E-005	12	...........	-327.56
	1536	768.5	1.41034E+000	5.99895E-001	0.00000E+000	1.41215E+000	-9.22214E-005	12	...........	-327.56
	1544	772.5	1.40229E+000	5.82592E-001	0.00000E+000	1.40415E+000	-8.83214E-005	12	...........	-327.56
	1552	776.5	1.39435E+000	5.66188E-001	0.00000E+000	1.39615E+000	-8.88214E-005	12	...........	-327.56
	1560	780.5	1.38637E+000	5.47491E-001	0.00000E+000	1.38815E+000	-8.84548E-005	12	...........	-327.56
	1568	784.5	1.37836E+000	5.30414E-001	0.00000E+000	1.38015E+000	-9.27548E-005	12	...........	-327.56
	1576	788.5	1.37032E+000	5.12378E-001	0.00000E+000	1.37215E+000	-9.01881E-005	12	...........	-327.56
	1584	792.5	1.36243E+000	4.94760E-001	0.00000E+000	1.36415E+000	-8.75548E-005	12	...........	-327.56
	1592	796.5	1.35440E+000	4.77571E-001	0.00000E+000	1.35615E+000	-9.22881E-005	12	...........	-327.56
	1600	800.5	1.34638E+000	4.61109E-001	0.00000E+000	1.34815E+000	-9.10881E-005	12	...........	-327.56
	1608	804.5	1.33847E+000	4.44844E-001	0.00000E+000	1.34015E+000	-9.05881E-005	12	...........	-327.56
	1616	808.5	1.33050E+000	4.28911E-001	0.00000E+000	1.33215E+000	-9.16214E-005	12	...........	-327.56
	1624	812.5	1.32251E+000	4.13347E-001	0.00000E+000	1.32415E+000	-9.39214E-005	12	...........	-327.56
	1632	816.5	1.31457E+000	3.98159E-001	0.00000E+000	1.31615E+000	-8.98214E-005	12	...........	-327.56
	1640	820.5	1.30657E+000	3.83175E-001	0.00000E+000	1.30815E+000	-9.49548E-005	12	...........	-327.56
	1648	824.5	1.29854E+000	3.68510E-001	0.00000E+000	1.30015E+000	-9.06548E-005	12	...........	-327.56
	1656	828.5	1.29061E+000	3.53682E-001	0.00000E+000	1.29215E+000	-8.89214E-005	12	...........	-327.56
	1664	832.5	1.28263E+000	3.39322E-001	0.00000E+000	1.28415E+000	-9.06881E-005	12	...........	-327.56
	1672	836.5	1.27460E+000	3.24826E-001	0.00000E+000	1.27615E+000	-9.00881E-005	12	...........	-327.56
	1680	840.5	1.26665E+000	3.10858E-001	0.00000E+000	1.26815E+000	-9.25214E-005	12	...........	-327.56
	1688	844.5	1.25868E+000	2.96625E-001	0.00000E+000	1.26015E+000	-8.98881E-005	12	...........	-327.56
	1696	848.5	1.25066E+000	2.82752E-001	0.00000E+000	1.25215E+000	-8.79548E-005	12	...........	-327.56
	1704	852.5	1.24262E+000	2.69422E-001	0.00000E+000	1.24415E+000	-9.31881E-005	12	...........	-327.56
	1712	856.5	1.23471E+000	2.56317E-001	0.00000E+000	1.23615E+000	-8.75214E-005	12	...........	-327.56
	1720	860.5	1.22668E+000	2.43243E-001	0.00000E+000	1.22815E+000	-8.58548E-005	12	...........	-327.56
	1728	864.5	1.21842E+000	2.29031E-001	0.00000E+000	1.22015E+000	-8.91214E-005	11	...........	-327.56
	1736	868.5	1.21052E+000	2.15742E-001	0.00000E+000	1.21215E+000	-8.74214E-005	11	...........	-327.56
	1744	872.5	1.20251E+000	2.03204E-001	0.00000E+000	1.20415E+000	-8.42214E-005	11	...........	-327.56
	1752	876.5	1.19452E+000	1.91502E-001	0.00000E+000	1.19615E+000	-8.99214E-005	11	...........	-327.56
	1760	880.5	1.18660E+000	1.80247E-001	0.00000E+000	1.18815E+000	-8.64548E-005	11	...........	-327.56
	1768	884.5	1.17861E+000	1.69443E-001	0.00000E+000	1.18015E+000	-8.91548E-005	11	...........	-327.56
	1776	888.5	1.17061E+000	1.58951E-001	0.00000E+000	1.17215E+000	-8.82214E-005	11	...........	-327.56
	1784	892.5	1.16265E+000	1.48830E-001	0.00000E+000	1.16415E+000	-8.78881E-005	11	...........	-327.56
	1792	896.5	1.15468E+000	1.38979E-001	0.00000E+000	1.15615E+000	-8.96881E-005	11	...........	-327.56
	1800	900.5	1.14668E+000	1.29617E-001	0.00000E+000	1.14815E+000	-8.82881E-005	11	...........	-327.56
	1808	904.5	1.13872E+000	1.20563E-001	0.00000E+000	1.14015E+000	-8.84548E-005	11	...........	-327.56
	1816	908.5	1.13075E+000	1.11894E-001	0.00000E+000	1.13215E+000	-9.23214E-005	11	...........	-327.56
	1824	912.5	1.12277E+000	1.03485E-001	0.00000E+000	1.12415E+000	-8.56214E-005	11	...........	-327.56
	1832	916.5	1.11475E+000	9.52389E-002	0.00000E+000	1.11615E+000	-9.01214E-005	11	...........	-327.56
	1840	920.5	1.10685E+000	8.73814E-002	0.00000E+000	1.10815E+000	-8.58548E-005	11	...........	-327.56
	1848	924.5	1.09882E+000	7.97319E-002	0.00000E+000	1.10015E+000	-9.12548E-005	11	...........	-327.56
	1856	928.5	1.09081E+000	7.24744E-002	0.00000E+000	1.09215E+000	-8.98214E-005	11	...........	-327.56
	1864	932.5	1.08291E+000	6.58795E-002	0.00000E+000	1.08415E+000	-8.96881E-005	11	...........	-327.56
	1872	936.5	1.07489E+000	5.94769E-002	0.00000E+000	1.07615E+000	-9.22881E-005	11	...........	-327.56
	1880	940.5	1.06689E+000	5.35388E-002	0.00000E+000	1.06815E+000	-8.84881E-005	11	...........	-327.56
	1888	944.5	1.05896E+000	4.80913E-002	0.00000E+000	1.06015E+000	-9.11881E-005	11	...........	-327.56
	1896	948.5	1.05097E+000	4.30082E-002	0.00000E+000	1.05215E+000	-8.99548E-005	11	...........	-327.56
	1904	952.5	1.04294E+000	3.82424E-002	0.00000E+000	1.04415E+000	-9.07214E-005	11	...........	-327.56
	1912	956.5	1.03501E+000	3.40156E-002	0.00000E+000	1.03615E+000	-8.98214E-005	11	...........	-327.56
	1920	960.5	1.02701E+000	3.01710E-002	0.00000E+000	1.02815E+000	-8.81881E-005	11	...........	-327.56
	1928	964.5	1.01904E+000	2.68248E-002	0.00000E+000	1.02015E+000	-8.97548E-005	11	...........	-327.56
	1936	968.5	1.01076E+000	2.37825E-002	0.00000E+000	1.01215E+000	-8.49548E-005	10	...........	-327.56
	1944	972.5	1.00279E+000	2.13541E-002	0.00000E+000	1.00415E+000	-8.69548E-005	10	...........	-327.56
	1952	976.5	9.94786E-001	1.92403E-002	0.00000E+000	9.96150E-001	-8.24881E-005	10	...........	-327.56
	1960	980.5	9.86779E-001	1.75738E-002	0.00000E+000	9.88150E-001	-8.69548E-005	10	...........	-327.56
	1968	984.5	9.78883E-001	1.62392E-002	0.00000E+000	9.80150E-001	-8.62548E-005	10	...........	-327.56
	1976	988.5	9.70869E-001	1.53172E-002	0.00000E+000	9.72150E-001	-8.51881E-005	10	...........	-327.56
	1984	992.5	9.62863E-001	1.44990E-002	0.00000E+000	9.64150E-001	-8.86881E-005	10	...........	-327.56
	1992	996.5	9.54944E-001	1.39383E-002	0.00000E+000	9.56150E-001	-8.93881E-005	10	...........	-327.56
	2000	1000.5	9.46907E-001	1.34941E-002	0.00000E+000	9.48150E-001	-8.83548E-005	10	...........	-327.56
	2008	1004.5	9.38896E-001	1.31880E-002	0.00000E+000	9.40150E-001	-8.89214E-005	10	...........	-327.56
	2016	1008.5	9.30978E-001	1.29123E-002	0.00000E+000	9.32150E-001	-8.91214E-005	10	...........	-327.56
	2024	1012.5	9.22975E-001	1.26202E-002	0.00000E+000	9.24150E-001	-8.97881E-005	10	...........	-327.56
	2032	1016.5	9.15016E-001	1.24717E-002	0.00000E+000	9.16150E-001	-9.10881E-005	10	...........	-327.56
	2040	1020.5	9.07063E-001	1.23464E-002	0.00000E+000	9.08150E-001	-8.63548E-005	10	...........	-327.56
	2048	1024.5	8.99052E-001	1.22448E-002	0.00000E+000	9.00150E-001	-8.79548E-005	10	...........	-327.56
	2056	1028.5	8.91050E-001	1.20534E-002	0.00000E+000	8.92150E-001	-9.20214E-005	10	...........	-327.56
	2064	1032.5	8.83059E-001	1.18698E-002	0.00000E+000	8.84150E-001	-8.35881E-005	10	...........	-327.56
	2072	1036.5	8.75071E-001	1.17777E-002	0.00000E+000	8.76150E-001	-8.85214E-005	10	...........	-327.56
	2080	1040.5	8.67068E-001	1.16167E-002	0.00000E+000	8.68150E-001	-9.49881E-005	10	...........	-327.56
	2088	1044.5	8.59091E-001	1.15441E-002	0.00000E+000	8.60150E-001	-9.19214E-005	10	...........	-327.56
	2096	1048.5	8.51104E-001	1.14035E-002	0.00000E+000	8.52150E-001	-9.10881E-005	10	...........	-327.56
	2104	1052.5	8.43094E-001	1.12468E-002	0.00000E+000	8.44150E-001	-8.98214E-005	10	...........	-327.56
	2112	1056.5	8.35098E-001	1.11681E-002	0.00000E+000	8.36150E-001	-9.20881E-005	10	...........	-327.56
	2120	1060.5	8.27123E-001	1.10890E-002	0.00000E+000	8.28150E-001	-9.11881E-005	10	...........	-327.56
	2128	1064.5	8.19128E-001	1.09644E-002	0.00000E+000	8.20150E-001	-8.97881E-005	10	...........	-327.56
	2136	1068.5	8.11133E-001	1.08403E-002	0.00000E+000	8.12150E-001	-8.98214E-005	10	...........	-327.56
	2144	1072.5	8.03159E-001	1.07801E-002	0.00000E+000	8.04150E-001	-9.02881E-005	10	...........	-327.56
	2152	1076.5	7.95150E-001	1.07312E-002	0.00000E+000	7.96150E-001	-9.26214E-005	10	...........	-327.56
	2160	1080.5	7.87134E-001	1.06905E-002	0.00000E+000	7.88150E-001	-8.88214E-005	10	...........	-327.56
	2168	1084.5	7.79168E-001	1.06213E-002	0.00000E+000	7.80150E-001	-8.91881E-005	10	...........	-327.56
	2176	1088.5	7.71164E-001	1.04978E-002	0.00000E+000	7.72150E-001	-9.08881E-005	10	...........	-327.56
	2184	1092.5	7.63147E-001	1.03530E-002	0.00000E+000	7.64150E-001	-9.11881E-005	10	...........	-327.56
	2192	1096.5	7.55197E-001	1.01649E-002	0.00000E+000	7.56150E-001	-8.80214E-005	10	...........	-327.56
	2200	1100.5	7.47205E-001	9.85720E-003	0.00000E+000	7.48150E-001	-8.95881E-005	10	...........	-327.56
	2208	1104.5	7.39161E-001	9.72735E-003	0.00000E+000	7.40150E-001	-8.74881E-005	10	...........	-327.56
	2216	1108.5	7.31143E-001	9.50576E-003	0.00000E+000	7.32150E-001	-8.99214E-005	10	...........	-327.56
	2224	1112.5	7.23211E-001	9.25415E-003	0.00000E+000	7.24150E-001	-9.01214E-005	10	...........	-327.56
	2232	1116.5	7.15224E-001	9.08479E-003	0.00000E+000	7.16150E-001	-9.35881E-005	10	...........	-327.56
	2240	1120.5	7.07178E-001	8.75149E-003	0.00000E+000	7.08150E-001	-8.88881E-005	10	...........	-327.56
	2248	1124.5	6.99312E-001	8.52621E-003	0.00000E+000	7.00150E-001	-9.01881E-005	10	...........	-327.56
	2256	1128.5	6.91262E-001	8.30926E-003	0.00000E+000	6.92150E-001	-9.06548E-005	10	...........	-327.56
	2264	1132.5	6.83222E-001	8.03289E-003	0.00000E+000	6.84150E-001	-9.12214E-005	10	...........	-327.56
	2272	1136.5	6.75339E-001	7.72762E-003	0.00000E+000	6.76150E-001	-8.57214E-005	10	...........	-327.56
	2280	1140.5	6.67318E-001	7.48681E-003	0.00000E+000	6.68150E-001	-9.09548E-005	10	...........	-327.56
	2288	1144.5	6.59277E-001	7.17725E-003	0.00000E+000	6.60150E-001	-9.10881E-005	10	...........	-327.56
	2296	1148.5	6.51386E-001	6.74314E-003	0.00000E+000	6.52150E-001	-8.83881E-005	10	...........	-327.56
	2304	1152.5	6.43368E-001	6.38607E-003	0.00000E+000	6.44150E-001	-9.26214E-005	10	...........	-327.56
	2312	1156.5	6.35349E-001	6.05288E-003	0.00000E+000	6.36150E-001	-9.13214E-005	10	...........	-327.56
	2320	1160.5	6.27342E-001	5.63401E-003	0.00000E+000	6.28150E-001	-8.99881E-005	10	...........	-327.56
	2328	1164.5	6.19409E-001	5.17364E-003	0.00000E+000	6.20150E-001	-8.97214E-005	10	...........	-327.56
	2336	1168.5	6.11395E-001	4.69642E-003	0.00000E+000	6.12150E-001	-9.08881E-005	10	...........	-327.56
	2344	1172.5	6.03337E-001	4.21394E-003	0.00000E+000	6.04150E-001	-9.37881E-005	10	...........	-327.56
	2352	1176.5	5.95473E-001	3.76254E-003	0.00000E+000	5.96150E-001	-8.78214E-005	10	...........	-327.56
	2360	1180.5	5.87425E-001	3.20486E-003	0.00000E+000	5.88150E-001	-9.15548E-005	10	...........	-327.56
	2368	1184.5	5.79402E-001	2.66554E-003	0.00000E+000	5.80150E-001	-8.97548E-005	10	...........	-327.56
	2376	1188.5	5.71246E-001	2.04798E-003	0.00000E+000	5.72150E-001	-8.90548E-005	9	...........	-327.56
	2384	1192.5	5.63292E-001	1.52634E-003	0.00000E+000	5.64150E-001	-8.95214E-005	9	...........	-327.56
	2392	1196.5	5.55349E-001	9.26690E-004	0.00000E+000	5.56150E-001	-9.34214E-005	9	...........	-327.56
	2400	1200.5	5.47513E-001	1.82554E-004	0.00000E+000	5.48150E-001	-9.20881E-005	9	...........	-327.56
	2408	1204.5	5.39588E-001	-4.90474E-004	0.00000E+000	5.40150E-001	-9.07548E-005	9	...........	-327.56
	2416	1208.5	5.31640E-001	-1.20074E-003	0.00000E+000	5.32150E-001	-9.03214E-005	9	...........	-327.56
	2424	1212.5	5.23807E-001	-1.94238E-003	0.00000E+000	5.24150E-001	-8.91214E-005	9	...........	-327.56
	2432	1216.5	5.15915E-001	-2.73135E-003	0.00000E+000	5.16150E-001	-7.66881E-005	9	...........	-327.56
	2440	1220.5	5.07600E-001	-3.64462E-003	0.00000E+000	5.08150E-001	-8.97548E-005	10	...........	-327.56
	2448	1224.5	4.99570E-001	-4.45147E-003	0.00000E+000	5.00150E-001	-8.62881E-005	10	...........	-327.56
	2456	1228.5	4.91694E-001	-5.29093E-003	0.00000E+000	4.92150E-001	-8.94548E-005	10	...........	-327.56
	2464	1232.5	4.83655E-001	-6.19988E-003	0.00000E+000	4.84150E-001	-9.07214E-005	10	...........	-327.56
	2472	1236.5	4.75630E-001	-7.03876E-003	0.00000E+000	4.76150E-001	-9.15548E-005	10	...........	-327.56
	2480	1240.5	4.67746E-001	-7.94993E-003	0.00000E+000	4.68150E-001	-9.01881E-005	10	...........	-327.56
	2488	1244.5	4.59721E-001	-8.84771E-003	0.00000E+000	4.60150E-001	-8.83214E-005	10	...........	-327.56
	2496	1248.5	4.51705E-001	-9.76177E-003	0.00000E+000	4.52150E-001	-9.40881E-005	10	...........	-327.56
	2504	1252.5	4.43822E-001	-1.06985E-002	0.00000E+000	4.44150E-001	-9.06214E-005	10	...........	-327.56
	2512	1256.5	4.35776E-001	-1.16109E-002	0.00000E+000	4.36150E-001	-8.98548E-005	10	...........	-327.56
	2520	1260.5	4.27771E-001	-1.25138E-002	0.00000E+000	4.28150E-001	-8.92548E-005	10	...........	-327.56
	2528	1264.5	4.19856E-001	-1.33711E-002	0.00000E+000	4.20150E-001	-8.84881E-005	10	...........	-327.56
	2536	1268.5	4.11849E-001	-1.41722E-002	0.00000E+000	4.12150E-001	-8.85214E-005	10	...........	-327.56
	2544	1272.5	4.03815E-001	-1.49124E-002	0.00000E+000	4.04150E-001	-8.66548E-005	10	...........	-327.56
	2552	1276.5	3.95877E-001	-1.56921E-002	0.00000E+000	3.96150E-001	-8.91881E-005	10	...........	-327.56
	2560	1280.5	3.87902E-001	-1.64348E-002	0.00000E+000	3.88150E-001	-8.38881E-005	10	...........	-327.56
	2568	1284.5	3.79863E-001	-1.71520E-002	0.00000E+000	3.80150E-001	-8.56881E-005	10	...........	-327.56
	2576	1288.5	3.71845E-001	-1.78261E-002	0.00000E+000	3.72150E-001	-8.73548E-005	10	...........	-327.56
	2584	1292.5	3.63942E-001	-1.85042E-002	0.00000E+000	3.64150E-001	-8.39548E-005	10	...........	-327.56
	2592	1296.5	3.55915E-001	-1.91258E-002	0.00000E+000	3.56150E-001	-8.70881E-005	10	...........	-327.56
	2600	1300.5	3.47915E-001	-1.97587E-002	0.00000E+000	3.48150E-001	-8.47881E-005	10	...........	-327.56
	2608	1304.5	3.39990E-001	-2.03913E-002	0.00000E+000	3.40150E-001	-8.52214E-005	10	...........	-327.56
	2616	1308.5	3.31951E-001	-2.09894E-002	0.00000E+000	3.32150E-001	-8.59548E-005	10	...........	-327.56
	2624	1312.5	3.23948E-001	-2.16014E-002	0.00000E+000	3.24150E-001	-8.50881E-005	10	...........	-327.56
	2632	1316.5	3.16018E-001	-2.22436E-002	0.00000E+000	3.16150E-001	-8.67881E-005	10	...........	-327.56
	2640	1320.5	3.08003E-001	-2.29360E-002	0.00000E+000	3.08150E-001	-8.44881E-005	10	...........	-327.56
	2648	1324.5	3.00042E-001	-2.36119E-002	0.00000E+000	3.00150E-001	-8.60881E-005	10	...........	-327.56
	2656	1328.5	2.92101E-001	-2.42891E-002	0.00000E+000	2.92150E-001	-8.38214E-005	10	...........	-327.56
	2664	1332.5	2.84132E-001	-2.49212E-002	0.00000E+000	2.84150E-001	-7.96214E-005	10	...........	-327.56
	2672	1336.5	2.76088E-001	-2.55278E-002	0.00000E+000	2.76150E-001	-8.31214E-005	10	...........	-327.56
	2680	1340.5	2.68146E-001	-2.60862E-002	0.00000E+000	2.68150E-001	-8.53214E-005	10	...........	-327.56
	2688	1344.5	2.60172E-001	-2.65589E-002	0.00000E+000	2.60150E-001	-8.30214E-005	10	...........	-327.56
	2696	1348.5	2.51824E-001	-2.70742E-002	0.00000E+000	2.52150E-001	-9.29881E-005	11	...........	-327.56
	2704	1352.5	2.43784E-001	-2.75472E-002	0.00000E+000	2.44150E-001	-8.79881E-005	11	...........	-327.56
	2712	1356.5	2.35883E-001	-2.80393E-002	0.00000E+000	2.36150E-001	-9.07214E-005	11	...........	-327.56
	2720	1360.5	2.27830E-001	-2.86935E-002	0.00000E+000	2.28150E-001	-8.75881E-005	11	...........	-327.56
	2728	1364.5	2.19811E-001	-2.93852E-002	0.00000E+000	2.20150E-001	-9.05548E-005	11	...........	-327.56
	2736	1368.5	2.11890E-001	-3.01817E-002	0.00000E+000	2.12150E-001	-8.59881E-005	11	...........	-327.56
	2744	1372.5	2.03884E-001	-3.11193E-002	0.00000E+000	2.04150E-001	-8.74548E-005	11	...........	-327.56
	2752	1376.5	1.95865E-001	-3.21370E-002	0.00000E+000	1.96150E-001	-8.86548E-005	11	...........	-327.56
	2760	1380.5	1.87942E-001	-3.32394E-002	0.00000E+000	1.88150E-001	-9.21214E-005	11	...........	-327.56
	2768	1384.5	1.79914E-001	-3.44073E-002	0.00000E+000	1.80150E-001	-8.76214E-005	11	...........	-327.56
	2776	1388.5	1.71899E-001	-3.57311E-002	0.00000E+000	1.72150E-001	-9.23548E-005	11	...........	-327.56
	2784	1392.5	1.63956E-001	-3.71760E-002	0.00000E+000	1.64150E-001	-9.29548E-005	11	...........	-327.56
	2792	1396.5	1.55959E-001	-3.87485E-002	0.00000E+000	1.56150E-001	-8.83881E-005	11	...........	-327.56
	2800	1400.5	1.47925E-001	-4.04107E-002	0.00000E+000	1.48150E-001	-8.90881E-005	11	...........	-327.56
	2808	1404.5	1.39973E-001	-4.20584E-002	0.00000E+000	1.40150E-001	-9.14214E-005	11	...........	-327.56
	2816	1408.5	1.31984E-001	-4.37941E-002	0.00000E+000	1.32150E-001	-9.52548E-005	11	...........	-327.56
	2824	1412.5	1.23953E-001	-4.55656E-002	0.00000E+000	1.24150E-001	-9.03548E-005	11	...........	-327.56
	2832	1416.5	1.15915E-001	-4.72011E-002	0.00000E+000	1.16150E-001	-9.30548E-005	11	...........	-327.56
	2840	1420.5	1.08014E-001	-4.88930E-002	0.00000E+000	1.08150E-001	-9.08548E-005	11	...........	-327.56
	2848	1424.5	1.00022E-001	-5.04147E-002	0.00000E+000	1.00150E-001	-9.21548E-005	11	...........	-327.56
	2856	1428.5	9.19895E-002	-5.18555E-002	0.00000E+000	9.21500E-002	-9.25214E-005	11	...........	-327.56
	2864	1432.5	8.40697E-002	-5.29958E-002	0.00000E+000	8.41500E-002	-9.40214E-005	11	...........	-327.56
	2872	1436.5	7.60321E-002	-5.37392E-002	0.00000E+000	7.61500E-002	-9.36214E-005	11	...........	-327.56
	2880	1440.5	6.80203E-002	-5.40708E-002	0.00000E+000	6.81500E-002	-9.40214E-005	11	...........	-327.56
	2888	1444.5	6.00942E-002	-5.40102E-002	0.00000E+000	6.01500E-002	-9.79214E-005	11	...........	-327.56
	2896	1448.5	5.20508E-002	-5.33209E-002	0.00000E+000	5.21500E-002	-9.12548E-005	11	...........	-327.56
	2904	1452.5	4.40430E-002	-5.22619E-002	0.00000E+000	4.41500E-002	-9.27881E-005	11	...........	-327.56
	2912	1456.5	3.61075E-002	-5.09636E-002	0.00000E+000	3.61500E-002	-9.09548E-005	11	...........	-327.56
	2920	1460.5	2.81045E-002	-4.94703E-002	0.00000E+000	2.81500E-002	-9.29214E-005	11	...........	-327.56
	2928	1464.5	2.00639E-002	-4.82115E-002	0.00000E+000	2.01500E-002	-9.19214E-005	11	...........	-327.56
	2936	1468.5	1.21000E-002	-4.70174E-002	0.00000E+000	1.21500E-002	-9.54214E-005	11	...........	-327.56
	2944	1472.5	4.11416E-003	-4.56832E-002	0.00000E+000	4.15003E-003	-9.50548E-005	11	...........	-327.56
[...]
	10069	5035	5.20224E-001	1.33790E-001	0.00000E+000	5.21000E-001	-9.05548E-005	11	...........	-327.56
	10075	5038	5.26164E-001	1.29663E-001	0.00000E+000	5.27000E-001	-9.58214E-005	11	...........	-327.56
	10081	5041	5.32156E-001	1.25514E-001	0.00000E+000	5.33000E-001	-9.67214E-005	11	...........	-327.56
	10087	5044	5.38176E-001	1.22595E-001	0.00000E+000	5.39000E-001	-9.32214E-005	11	...........	-327.56
	10093	5047	5.44216E-001	1.18854E-001	0.00000E+000	5.45000E-001	-9.02548E-005	11	...........	-327.56
	10099	5050	5.50216E-001	1.15603E-001	0.00000E+000	5.51000E-001	-9.04548E-005	11	...........	-327.56
	10105	5053	5.56163E-001	1.12509E-001	0.00000E+000	5.57000E-001	-9.36214E-005	11	...........	-327.56
	10111	5056	5.62169E-001	1.08819E-001	0.00000E+000	5.63000E-001	-9.39881E-005	11	...........	-327.56
	10117	5059	5.68220E-001	1.05906E-001	0.00000E+000	5.69000E-001	-9.91548E-005	11	...........	-327.56
	10123	5062	5.74238E-001	1.03105E-001	0.00000E+000	5.75000E-001	-9.54548E-005	11	...........	-327.56
	10129	5065	5.80167E-001	9.98304E-002	0.00000E+000	5.81000E-001	-9.44881E-005	11	...........	-327.56
	10135	5068	5.86174E-001	9.75085E-002	0.00000E+000	5.87000E-001	-9.29881E-005	11	...........	-327.56
	10141	5071	5.92204E-001	9.47805E-002	0.00000E+000	5.93000E-001	-9.49881E-005	11	...........	-327.56
	10147	5074	5.98226E-001	9.22406E-002	0.00000E+000	5.99000E-001	-9.20548E-005	11	...........	-327.56
	10153	5077	6.04153E-001	9.02356E-002	0.00000E+000	6.05000E-001	-9.40214E-005	11	...........	-327.56
	10159	5080	6.10179E-001	8.76944E-002	0.00000E+000	6.11000E-001	-9.52548E-005	11	...........	-327.56
	10165	5083	6.16183E-001	8.56550E-002	0.00000E+000	6.17000E-001	-9.69548E-005	11	...........	-327.56
	10171	5086	6.22223E-001	8.38187E-002	0.00000E+000	6.23000E-001	-9.47214E-005	11	...........	-327.56
	10177	5089	6.28103E-001	8.17500E-002	0.00000E+000	6.29000E-001	-9.74214E-005	11	...........	-327.56
	10183	5092	6.34146E-001	8.03884E-002	0.00000E+000	6.35000E-001	-9.31881E-005	11	...........	-327.56
	10189	5095	6.40170E-001	7.87451E-002	0.00000E+000	6.41000E-001	-9.82214E-005	11	...........	-327.56
	10195	5098	6.46216E-001	7.72849E-002	0.00000E+000	6.47000E-001	-9.40881E-005	11	...........	-327.56
	10201	5101	6.52188E-001	7.57003E-002	0.00000E+000	6.53000E-001	-9.42214E-005	11	...........	-327.56
	10207	5104	6.58138E-001	7.42553E-002	0.00000E+000	6.59000E-001	-9.46214E-005	11	...........	-327.56
	10213	5107	6.64155E-001	7.29698E-002	0.00000E+000	6.65000E-001	-9.71548E-005	11	...........	-327.56
	10219	5110	6.70192E-001	7.18039E-002	0.00000E+000	6.71000E-001	-9.49881E-005	11	...........	-327.56
	10225	5113	6.76180E-001	7.05844E-002	0.00000E+000	6.77000E-001	-9.08881E-005	11	...........	-327.56
	10231	5116	6.82107E-001	6.95055E-002	0.00000E+000	6.83000E-001	-9.50881E-005	11	...........	-327.56
	10237	5119	6.88129E-001	6.83279E-002	0.00000E+000	6.89000E-001	-9.30548E-005	11	...........	-327.56
	10243	5122	6.94175E-001	6.76104E-002	0.00000E+000	6.95000E-001	-9.71881E-005	11	...........	-327.56
	10249	5125	7.00184E-001	6.68467E-002	0.00000E+000	7.01000E-001	-9.62881E-005	11	...........	-327.56
	10255	5128	7.06094E-001	6.58176E-002	0.00000E+000	7.07000E-001	-9.37881E-005	11	...........	-327.56
	10261	5131	7.12123E-001	6.49765E-002	0.00000E+000	7.13000E-001	-9.84548E-005	11	...........	-327.56
	10267	5134	7.18109E-001	6.43820E-002	0.00000E+000	7.19000E-001	-9.80881E-005	11	...........	-327.56
	10273	5137	7.24126E-001	6.35927E-002	0.00000E+000	7.25000E-001	-9.31214E-005	11	...........	-327.56
	10279	5140	7.30020E-001	6.29547E-002	0.00000E+000	7.31000E-001	-9.18881E-005	11	...........	-327.56
	10285	5143	7.36047E-001	6.23033E-002	0.00000E+000	7.37000E-001	-9.37881E-005	11	...........	-327.56
	10291	5146	7.42082E-001	6.16959E-002	0.00000E+000	7.43000E-001	-9.39881E-005	11	...........	-327.56
	10297	5149	7.48117E-001	6.11187E-002	0.00000E+000	7.49000E-001	-9.51548E-005	11	...........	-327.56
	10303	5152	7.54122E-001	6.04486E-002	0.00000E+000	7.55000E-001	-9.37214E-005	11	...........	-327.56
	10309	5155	7.60006E-001	5.99713E-002	0.00000E+000	7.61000E-001	-9.30881E-005	11	...........	-327.56
	10315	5158	7.66057E-001	5.95155E-002	0.00000E+000	7.67000E-001	-9.68881E-005	11	...........	-327.56
	10321	5161	7.72084E-001	5.89802E-002	0.00000E+000	7.73000E-001	-9.01548E-005	11	...........	-327.56
	10327	5164	7.78103E-001	5.84924E-002	0.00000E+000	7.79000E-001	-9.23548E-005	11	...........	-327.56
	10333	5167	7.83981E-001	5.80950E-002	0.00000E+000	7.85000E-001	-9.16548E-005	11	...........	-327.56
	10339	5170	7.90036E-001	5.76270E-002	0.00000E+000	7.91000E-001	-9.20881E-005	11	...........	-327.56
	10345	5173	7.96068E-001	5.71974E-002	0.00000E+000	7.97000E-001	-9.90881E-005	11	...........	-327.56
	10351	5176	8.02084E-001	5.67759E-002	0.00000E+000	8.03000E-001	-9.11214E-005	11	...........	-327.56
	10357	5179	8.07964E-001	5.62500E-002	0.00000E+000	8.09000E-001	-9.49214E-005	11	...........	-327.56
	10363	5182	8.14034E-001	5.58509E-002	0.00000E+000	8.15000E-001	-9.38881E-005	11	...........	-327.56
	10369	5185	8.19990E-001	5.54927E-002	0.00000E+000	8.21000E-001	-9.40214E-005	11	...........	-327.56
	10375	5188	8.26015E-001	5.51331E-002	0.00000E+000	8.27000E-001	-9.16548E-005	11	...........	-327.56
	10381	5191	8.32012E-001	5.47791E-002	0.00000E+000	8.33000E-001	-9.38881E-005	11	...........	-327.56
	10387	5194	8.37959E-001	5.44894E-002	0.00000E+000	8.39000E-001	-9.61881E-005	11	...........	-327.56
	10393	5197	8.43975E-001	5.41154E-002	0.00000E+000	8.45000E-001	-9.27214E-005	11	...........	-327.56
	10399	5200	8.50027E-001	5.38365E-002	0.00000E+000	8.51000E-001	-9.14548E-005	11	...........	-327.56
	10405	5203	8.56011E-001	5.34980E-002	0.00000E+000	8.57000E-001	-9.42214E-005	11	...........	-327.56
	10411	5206	8.61940E-001	5.32030E-002	0.00000E+000	8.63000E-001	-9.60881E-005	11	...........	-327.56
	10417	5209	8.67965E-001	5.28645E-002	0.00000E+000	8.69000E-001	-9.18214E-005	11	...........	-327.56
	10423	5212	8.73999E-001	5.26021E-002	0.00000E+000	8.75000E-001	-8.95214E-005	11	...........	-327.56
	10429	5215	8.79988E-001	5.23909E-002	0.00000E+000	8.81000E-001	-9.74214E-005	11	...........	-327.56
	10435	5218	8.85920E-001	5.21433E-002	0.00000E+000	8.87000E-001	-9.36548E-005	11	...........	-327.56
	10441	5221	8.91938E-001	5.18061E-002	0.00000E+000	8.93000E-001	-9.44548E-005	11	...........	-327.56
	10447	5224	8.97978E-001	5.14872E-002	0.00000E+000	8.99000E-001	-9.32881E-005	11	...........	-327.56
	10453	5227	9.03984E-001	5.12237E-002	0.00000E+000	9.05000E-001	-9.62214E-005	11	...........	-327.56
	10459	5230	9.09890E-001	5.10221E-002	0.00000E+000	9.11000E-001	-9.55548E-005	11	...........	-327.56
	10465	5233	9.15911E-001	5.06409E-002	0.00000E+000	9.17000E-001	-9.35548E-005	11	...........	-327.56
	10471	5236	9.21901E-001	5.03559E-002	0.00000E+000	9.23000E-001	-9.24881E-005	11	...........	-327.56
	10477	5239	9.27933E-001	5.01335E-002	0.00000E+000	9.29000E-001	-9.39214E-005	11	...........	-327.56
	10483	5242	9.33916E-001	4.99290E-002	0.00000E+000	9.35000E-001	-8.79214E-005	11	...........	-327.56
	10489	5245	9.39862E-001	4.95285E-002	0.00000E+000	9.41000E-001	-9.24548E-005	11	...........	-327.56
	10495	5248	9.45882E-001	4.91144E-002	0.00000E+000	9.47000E-001	-9.12548E-005	11	...........	-327.56
	10501	5251	9.51931E-001	4.88448E-002	0.00000E+000	9.53000E-001	-9.33548E-005	11	...........	-327.56
	10507	5254	9.57899E-001	4.84830E-002	0.00000E+000	9.59000E-001	-9.28548E-005	11	...........	-327.56
	10513	5257	9.63845E-001	4.82968E-002	0.00000E+000	9.65000E-001	-9.49548E-005	11	...........	-327.56
	10519	5260	9.69860E-001	4.80393E-002	0.00000E+000	9.71000E-001	-9.01548E-005	11	...........	-327.56
	10525	5263	9.75916E-001	4.78889E-002	0.00000E+000	9.77000E-001	-9.31214E-005	11	...........	-327.56
	10531	5266	9.81893E-001	4.78897E-002	0.00000E+000	9.83000E-001	-9.06214E-005	11	...........	-327.56
	10537	5269	9.87818E-001	4.82594E-002	0.00000E+000	9.89000E-001	-9.69881E-005	11	...........	-327.56
	10543	5272	9.93849E-001	4.80909E-002	0.00000E+000	9.95000E-001	-9.61214E-005	11	...........	-327.56
	10549	5275	9.99898E-001	4.83943E-002	0.00000E+000	1.00100E+000	-9.66881E-005	11	...........	-327.56
	10555	5278	1.00587E+000	4.87632E-002	0.00000E+000	1.00700E+000	-9.26881E-005	11	...........	-327.56
	10561	5281	1.01179E+000	4.93396E-002	0.00000E+000	1.01300E+000	-8.95214E-005	11	...........	-327.56
	10567	5284	1.01782E+000	5.00115E-002	0.00000E+000	1.01900E+000	-8.98548E-005	11	...........	-327.56
	10573	5287	1.02386E+000	5.05325E-002	0.00000E+000	1.02500E+000	-9.29214E-005	11	...........	-327.56
	10579	5290	1.02984E+000	5.12604E-002	0.00000E+000	1.03100E+000	-9.33214E-005	11	...........	-327.56
	10585	5293	1.03585E+000	5.21983E-002	0.00000E+000	1.03700E+000	-9.36881E-005	11	...........	-327.56
	10591	5296	1.04178E+000	5.31575E-002	0.00000E+000	1.04300E+000	-9.23548E-005	11	...........	-327.56
	10597	5299	1.04782E+000	5.40878E-002	0.00000E+000	1.04900E+000	-9.54214E-005	11	...........	-327.56
	10603	5302	1.05382E+000	5.50864E-002	0.00000E+000	1.05500E+000	-9.45881E-005	11	...........	-327.56
	10609	5305	1.05984E+000	5.62987E-002	0.00000E+000	1.06100E+000	-8.86214E-005	11	...........	-327.56
	10615	5308	1.06573E+000	5.75633E-002	0.00000E+000	1.06700E+000	-9.44214E-005	11	...........	-327.56
	10621	5311	1.07178E+000	5.88182E-002	0.00000E+000	1.07300E+000	-8.78881E-005	11	...........	-327.56
	10627	5314	1.07778E+000	6.00924E-002	0.00000E+000	1.07900E+000	-9.45214E-005	11	...........	-327.56
	10633	5317	1.08380E+000	6.15545E-002	0.00000E+000	1.08500E+000	-9.21548E-005	11	...........	-327.56
	10639	5320	1.08967E+000	6.29149E-002	0.00000E+000	1.09100E+000	-9.38214E-005	11	...........	-327.56
	10645	5323	1.09574E+000	6.41989E-002	0.00000E+000	1.09700E+000	-9.35548E-005	11	...........	-327.56
	10651	5326	1.10174E+000	6.54647E-002	0.00000E+000	1.10300E+000	-9.47548E-005	11	...........	-327.56
	10657	5329	1.10777E+000	6.68168E-002	0.00000E+000	1.10900E+000	-9.01214E-005	11	...........	-327.56
	10663	5332	1.11371E+000	6.79229E-002	0.00000E+000	1.11500E+000	-9.20548E-005	11	...........	-327.56
	10669	5335	1.11973E+000	6.91404E-002	0.00000E+000	1.12100E+000	-9.49214E-005	11	...........	-327.56
	10675	5338	1.12571E+000	7.01296E-002	0.00000E+000	1.12700E+000	-9.45881E-005	11	...........	-327.56
	10681	5341	1.13170E+000	7.06361E-002	0.00000E+000	1.13300E+000	-9.31214E-005	11	...........	-327.56
	10687	5344	1.13770E+000	7.14215E-002	0.00000E+000	1.13900E+000	-9.38214E-005	11	...........	-327.56
	10693	5347	1.14363E+000	7.17569E-002	0.00000E+000	1.14500E+000	-9.25881E-005	11	...........	-327.56
	10699	5350	1.14964E+000	7.18720E-002	0.00000E+000	1.15100E+000	-9.43548E-005	11	...........	-327.56
	10705	5353	1.15568E+000	7.17009E-002	0.00000E+000	1.15700E+000	-9.31881E-005	11	...........	-327.56
	10711	5356	1.16168E+000	7.15068E-002	0.00000E+000	1.16300E+000	-9.43881E-005	11	...........	-327.56
	10717	5359	1.16760E+000	7.11916E-002	0.00000E+000	1.16900E+000	-9.37881E-005	11	...........	-327.56
	10723	5362	1.17363E+000	7.07597E-002	0.00000E+000	1.17500E+000	-9.61548E-005	11	...........	-327.56
	10729	5365	1.17966E+000	7.04944E-002	0.00000E+000	1.18100E+000	-9.57214E-005	11	...........	-327.56
	10735	5368	1.18567E+000	7.01620E-002	0.00000E+000	1.18700E+000	-9.54214E-005	11	...........	-327.56
	10741	5371	1.19156E+000	7.03862E-002	0.00000E+000	1.19300E+000	-9.47214E-005	11	...........	-327.56
	10747	5374	1.19760E+000	7.03961E-002	0.00000E+000	1.19900E+000	-9.21881E-005	11	...........	-327.56
	10753	5377	1.20361E+000	7.10815E-002	0.00000E+000	1.20500E+000	-9.03548E-005	11	...........	-327.56
	10759	5380	1.20964E+000	7.21408E-002	0.00000E+000	1.21100E+000	-9.14881E-005	11	...........	-327.56
	10765	5383	1.21563E+000	7.37453E-002	0.00000E+000	1.21700E+000	-9.08881E-005	11	...........	-327.56
	10771	5386	1.22158E+000	7.57843E-002	0.00000E+000	1.22300E+000	-9.04881E-005	11	...........	-327.56
	10777	5389	1.22759E+000	7.87781E-002	0.00000E+000	1.22900E+000	-9.23881E-005	11	...........	-327.56
	10783	5392	1.23360E+000	8.26324E-002	0.00000E+000	1.23500E+000	-9.74548E-005	11	...........	-327.56
	10789	5395	1.23961E+000	8.72989E-002	0.00000E+000	1.24100E+000	-9.10214E-005	11	...........	-327.56
	10795	5398	1.24553E+000	9.30283E-002	0.00000E+000	1.24700E+000	-9.50214E-005	11	...........	-327.56
	10801	5401	1.25155E+000	9.77368E-002	0.00000E+000	1.25300E+000	-9.17548E-005	11	...........	-327.56
	10807	5404	1.25756E+000	1.03947E-001	0.00000E+000	1.25900E+000	-9.32548E-005	11	...........	-327.56
	10813	5407	1.26354E+000	1.10920E-001	0.00000E+000	1.26500E+000	-9.30214E-005	11	...........	-327.56
	10819	5410	1.26946E+000	1.18946E-001	0.00000E+000	1.27100E+000	-9.49548E-005	11	...........	-327.56
	10825	5413	1.27547E+000	1.27340E-001	0.00000E+000	1.27700E+000	-9.41214E-005	11	...........	-327.56
	10831	5416	1.28151E+000	1.36439E-001	0.00000E+000	1.28300E+000	-9.50214E-005	11	...........	-327.56
	10837	5419	1.28746E+000	1.46411E-001	0.00000E+000	1.28900E+000	-9.44548E-005	11	...........	-327.56
	10843	5422	1.29338E+000	1.57124E-001	0.00000E+000	1.29500E+000	-9.12881E-005	11	...........	-327.56
	10849	5425	1.29937E+000	1.67727E-001	0.00000E+000	1.30100E+000	-8.78214E-005	11	...........	-327.56
	10855	5428	1.30539E+000	1.78735E-001	0.00000E+000	1.30700E+000	-9.35548E-005	11	...........	-327.56
	10861	5431	1.31137E+000	1.90706E-001	0.00000E+000	1.31300E+000	-9.10881E-005	11	...........	-327.56
	10867	5434	1.31736E+000	2.01731E-001	0.00000E+000	1.31900E+000	-9.03548E-005	11	...........	-327.56
	10873	5437	1.32325E+000	2.13285E-001	0.00000E+000	1.32500E+000	-9.27548E-005	11	...........	-327.56
	10879	5440	1.32927E+000	2.25296E-001	0.00000E+000	1.33100E+000	-9.20548E-005	11	...........	-327.56
	10885	5443	1.33523E+000	2.37467E-001	0.00000E+000	1.33700E+000	-9.18881E-005	11	...........	-327.56
	10891	5446	1.34121E+000	2.59065E-001	0.00000E+000	1.34300E+000	-8.89214E-005	11	...........	-327.56
	10897	5449	1.34714E+000	2.63612E-001	0.00000E+000	1.34900E+000	-9.06881E-005	11	...........	-327.56
	10903	5452	1.35345E+000	2.77341E-001	0.00000E+000	1.35500E+000	-9.47548E-005	12	...........	-327.56
	10909	5455	1.35945E+000	2.91090E-001	0.00000E+000	1.36100E+000	-9.36214E-005	12	...........	-327.56
	10915	5458	1.36546E+000	3.04736E-001	0.00000E+000	1.36700E+000	-9.31214E-005	12	...........	-327.56
	10921	5461	1.37132E+000	3.18759E-001	0.00000E+000	1.37300E+000	-9.39214E-005	12	...........	-327.56
	10927	5464	1.37740E+000	3.32932E-001	0.00000E+000	1.37900E+000	-9.54214E-005	12	...........	-327.56
	10933	5467	1.38336E+000	3.47057E-001	0.00000E+000	1.38500E+000	-9.23881E-005	12	...........	-327.56
	10939	5470	1.38939E+000	3.62862E-001	0.00000E+000	1.39100E+000	-9.29881E-005	12	...........	-327.56
	10945	5473	1.39533E+000	3.77103E-001	0.00000E+000	1.39700E+000	-9.13548E-005	12	...........	-327.56
	10951	5476	1.40131E+000	3.92224E-001	0.00000E+000	1.40300E+000	-8.99881E-005	12	...........	-327.56
	10957	5479	1.40730E+000	4.08128E-001	0.00000E+000	1.40900E+000	-9.46214E-005	12	...........	-327.56
	10963	5482	1.41331E+000	4.43016E-001	0.00000E+000	1.41500E+000	-9.31881E-005	12	...........	-327.56
	10969	5485	1.41931E+000	4.38840E-001	0.00000E+000	1.42100E+000	-9.55548E-005	12	...........	-327.56
	10975	5488	1.42523E+000	4.53919E-001	0.00000E+000	1.42700E+000	-9.58214E-005	12	...........	-327.56
	10981	5491	1.43123E+000	4.70299E-001	0.00000E+000	1.43300E+000	-9.39548E-005	12	...........	-327.56
	10987	5494	1.43725E+000	4.86775E-001	0.00000E+000	1.43900E+000	-9.34881E-005	12	...........	-327.56
	10993	5497	1.44323E+000	5.03573E-001	0.00000E+000	1.44500E+000	-9.58548E-005	12	...........	-327.56
	10999	5500	1.44915E+000	5.19297E-001	0.00000E+000	1.45100E+000	-9.12881E-005	12	...........	-327.56
	11005	5503	1.45516E+000	5.34762E-001	0.00000E+000	1.45700E+000	-9.52548E-005	12	...........	-327.56
	11011	5506	1.46118E+000	5.49890E-001	0.00000E+000	1.46300E+000	-9.32548E-005	12	...........	-327.56
	11017	5509	1.46717E+000	5.66895E-001	0.00000E+000	1.46900E+000	-9.77548E-005	12	...........	-327.56
	11023	5512	1.47308E+000	5.84115E-001	0.00000E+000	1.47500E+000	-1.02088E-004	12	...........	-327.56
	11029	5515	1.47909E+000	5.98500E-001	0.00000E+000	1.48100E+000	-9.10214E-005	12	...........	-327.56
	11035	5518	1.48511E+000	6.16566E-001	0.00000E+000	1.48700E+000	-9.19881E-005	12	...........	-327.56
	11041	5521	1.49113E+000	6.32176E-001	0.00000E+000	1.49300E+000	-9.58881E-005	12	...........	-327.56
	11047	5524	1.49707E+000	6.43220E-001	0.00000E+000	1.49900E+000	-9.18881E-005	12	...........	-327.56
	11053	5527	1.50304E+000	6.62334E-001	0.00000E+000	1.50500E+000	-9.52214E-005	12	...........	-327.56
	11059	5530	1.50904E+000	6.79600E-001	0.00000E+000	1.51100E+000	-9.60548E-005	12	...........	-327.56
	11065	5533	1.51510E+000	6.91230E-001	0.00000E+000	1.51700E+000	-9.49881E-005	12	...........	-327.56
	11071	5536	1.52103E+000	7.12459E-001	0.00000E+000	1.52300E+000	-9.44214E-005	12	...........	-327.56
	11077	5539	1.52699E+000	7.28985E-001	0.00000E+000	1.52900E+000	-9.64214E-005	12	...........	-327.56
	11083	5542	1.53299E+000	7.39404E-001	0.00000E+000	1.53500E+000	-9.21214E-005	12	...........	-327.56
	11089	5545	1.53898E+000	7.53542E-001	0.00000E+000	1.54100E+000	-9.26881E-005	12	...........	-327.56
	11095	5548	1.54496E+000	7.67908E-001	0.00000E+000	1.54700E+000	-9.47548E-005	12	...........	-327.56
	11101	5551	1.55086E+000	7.88174E-001	0.00000E+000	1.55300E+000	-9.32881E-005	12	...........	-327.56
	11107	5554	1.55686E+000	8.03477E-001	0.00000E+000	1.55900E+000	-9.59214E-005	12	...........	-327.56
	11113	5557	1.56289E+000	8.16222E-001	0.00000E+000	1.56500E+000	-9.72548E-005	12	...........	-327.56
	11119	5560	1.56890E+000	8.41078E-001	0.00000E+000	1.57100E+000	-9.44214E-005	12	...........	-327.56
	11125	5563	1.57480E+000	8.46566E-001	0.00000E+000	1.57700E+000	-9.27214E-005	12	...........	-327.56
	11131	5566	1.58079E+000	8.68739E-001	0.00000E+000	1.58300E+000	-9.46548E-005	12	...........	-327.56
	11137	5569	1.58681E+000	8.80288E-001	0.00000E+000	1.58900E+000	-9.11881E-005	12	...........	-327.56
	11143	5572	1.59282E+000	8.97064E-001	0.00000E+000	1.59500E+000	-9.43881E-005	12	...........	-327.56
	11149	5575	1.59884E+000	9.12565E-001	0.00000E+000	1.60100E+000	-9.10881E-005	12	...........	-327.56
	11155	5578	1.60475E+000	9.37791E-001	0.00000E+000	1.60700E+000	-9.28881E-005	12	...........	-327.56
	11161	5581	1.61074E+000	9.52368E-001	0.00000E+000	1.61300E+000	-9.56881E-005	12	...........	-327.56
	11167	5584	1.61678E+000	9.63511E-001	0.00000E+000	1.61900E+000	-9.29214E-005	12	...........	-327.56
	11173	5587	1.62278E+000	9.83557E-001	0.00000E+000	1.62500E+000	-9.40548E-005	12	...........	-327.56
	11179	5590	1.62873E+000	1.00721E+000	0.00000E+000	1.63100E+000	-9.35214E-005	12	...........	-327.56
	11185	5593	1.63469E+000	1.02308E+000	0.00000E+000	1.63700E+000	-9.03548E-005	12	...........	-327.56
	11191	5596	1.64069E+000	1.04381E+000	0.00000E+000	1.64300E+000	-9.13214E-005	12	...........	-327.56
	11197	5599	1.64671E+000	1.05658E+000	0.00000E+000	1.64900E+000	-9.36214E-005	12	...........	-327.56
	11203	5602	1.65266E+000	1.07239E+000	0.00000E+000	1.65500E+000	-9.83548E-005	12	...........	-327.56
	11209	5605	1.65863E+000	1.09188E+000	0.00000E+000	1.66100E+000	-9.43548E-005	12	...........	-327.56
	11215	5608	1.66463E+000	1.09875E+000	0.00000E+000	1.66700E+000	-9.59214E-005	12	...........	-327.56
	11221	5611	1.67066E+000	1.12536E+000	0.00000E+000	1.67300E+000	-9.53881E-005	12	...........	-327.56
	11227	5614	1.67665E+000	1.14354E+000	0.00000E+000	1.67900E+000	-9.52881E-005	12	...........	-327.56
	11233	5617	1.68259E+000	1.15487E+000	0.00000E+000	1.68500E+000	-9.29548E-005	12	...........	-327.56
	11239	5620	1.68860E+000	1.17497E+000	0.00000E+000	1.69100E+000	-9.42548E-005	12	...........	-327.56
	11245	5623	1.69460E+000	1.19160E+000	0.00000E+000	1.69700E+000	-9.54214E-005	12	...........	-327.56
	11248	5624.5	1.69758E+000	1.20623E+000	0.00000E+000	1.70000E+000	-9.50881E-005	12	...........	-327.56