File: testing/data/240902_11_MCL13_cswWE_CV2_750C_CO2.DTA
EXPLAIN
TAG	CV
TITLE	LABEL	Cyclic Voltammetry	Test Identifier
DATE	LABEL	9/3/2024	Date
TIME	LABEL	5:24:42	Time
NOTES	NOTES	5	Notes...
	cswWE - carbon steel wire
cspWE - carbon steel plate 2x2 tapered

Carbon steel plate counter electrode
Carbon steel wire reference electrode
PSTAT	PSTAT	REF3000-48128	Potentiostat
VINIT	POTEN	0.00000E+000	T	Initial E (V)
VLIMIT1	POTEN	1.70000E+000	F	Scan Limit 1 (V)
VLIMIT2	POTEN	-5.00000E-001	F	Scan Limit 2 (V)
VFINAL	POTEN	1.70000E+000	F	Final E (V)
SCANRATE	QUANT	2.00000E+000	Scan Rate (mV/s)
STEPSIZE	QUANT	1.00000E+000	Step Size (mV)
CYCLES	IQUANT	2	Cycles (#)
IMODE	SELECTOR	0	I/E Range Mode
IRANGE	QUANT	3.00000E-001	Max Current (mA)
AREA	QUANT	1.00000E+000	Sample Area (cm^2)
EQDELAY	QUANT	0.00000E+000	Equil. Time (s)
IRCOMP	SELECTOR	0	IRComp
PFCOR	QUANT	5.00000E+001	PF Corr. (ohm)
SAMPLINGMODE	SELECTOR	1	Sampling Mode
EOC	QUANT	0.2661975	Open Circuit (V)
ELECTRODETYPE	SELECTOR	0	Electrode Type
STRIPPING	TOGGLE	F	Used for Stripping
SEQUENCER	TOGGLE	TRUE	Run as Sequence
PSTATMODEL	IQUANT	5	Pstat Model
PSTATSECTION	LABEL	REF3000-48128	Pstat Section
PSTATSERIALNO	LABEL	48128	Pstat Serial Number
CTRLMODE	IQUANT	1	Control Mode
ELECTROMETER	IQUANT	0	RE=0 or CS=1
IESTAB	IQUANT	2	I/E Stability
CASPEED	IQUANT	4	Control Amp Speed
CONVENTION	IQUANT	1	Current Convention
ICHRANGE	IQUANT	2	Ich Range
ICHRANGEMODE	TOGGLE	F	Ich Auto Range
ICHOFFSETENABLE	TOGGLE	F	Ich Offset Enable
ICHOFFSET	QUANT	0	Ich Offset (V)
ICHFILTER	IQUANT	3	Ich Filter
VCHRANGE	IQUANT	2	Vch Range
VCHRANGEMODE	TOGGLE	F	Vch Auto Range
VCHOFFSETENABLE	TOGGLE	F	Vch Offset Enable
VCHOFFSET	QUANT	0	Vch Offset (V)
VCHFILTER	IQUANT	3	Vch Filter
ACHRANGE	IQUANT	2	Ach Range
ACHOFFSETENABLE	TOGGLE	F	Ach Offset Enable
ACHOFFSET	QUANT	0	Ach Offset (V)
ACHFILTER	IQUANT	1	Ach Filter
IERANGELOWERLIMIT	IQUANT	2	I/E Range Lower Limit
IERANGEMODE	TOGGLE	T	I/E AutoRange
IERANGE	IQUANT	9	I/E Range
POSFEEDENABLE	TOGGLE	F	Positive Feedback IR Comp
POSFEEDRESISTANCE	QUANT	0	Positive Feedback Resistance (ohm)
ACHSELECT	IQUANT	4	Ach Select
SENSECABLEID	IQUANT	14	Sense Cable ID
PWRCABLEID	IQUANT	7	Power Cable ID
DCCALDATE	LABEL	8/16/2024	DC Calibration Date
ACCALDATE	LABEL	8/16/2024	AC Calibration Date
THERMOSELECT	IQUANT	1	Thermo Select
FRAMEWORKVERSION	LABEL	7.10.3	Framework Version
INSTRUMENTVERSION	LABEL	4.91	Instrument Version
COMMVERSION	LABEL	5.10	Communications Version
CPUPLDVERSION	LABEL	6.00	CPU PLD Version
CTRLPLDVERSION	LABEL	3.21	CTRL PLD Version
PSTATPLDVERSION	LABEL	0.00	PSTAT PLD Version
COMPLIANCEVOLTAGE	IQUANT	0	Compliance Voltage
CURVE1	TABLE
	Pt	T	Vf	Im	Vu	Sig	Ach	IERange	Over	Temp
	#	s	V vs. Ref.	A	V	V	V	#	bits	deg C
	0	0.5	2.65709E-001	1.28877E-003	0.00000E+000	2.66200E-001	-9.76548E-005	9	...........	-327.56
	8	4.5	2.73748E-001	4.47223E-003	0.00000E+000	2.74200E-001	-9.77548E-005	10	...........	-327.56
	16	8.5	2.81744E-001	6.45071E-003	0.00000E+000	2.82200E-001	-9.72881E-005	10	...........	-327.56
	24	12.5	2.89761E-001	7.78276E-003	0.00000E+000	2.90200E-001	-9.90214E-005	10	...........	-327.56
	32	16.5	2.97642E-001	8.79140E-003	0.00000E+000	2.98200E-001	-9.84214E-005	10	...........	-327.56
	40	20.5	3.05670E-001	9.59181E-003	0.00000E+000	3.06200E-001	-9.84548E-005	10	...........	-327.56
	48	24.5	3.13652E-001	1.01347E-002	0.00000E+000	3.14200E-001	-1.09455E-004	10	...........	-327.56
	56	28.5	3.21562E-001	1.05052E-002	0.00000E+000	3.22200E-001	-1.08821E-004	10	...........	-327.56
	64	32.5	3.29589E-001	1.08670E-002	0.00000E+000	3.30200E-001	-1.11788E-004	10	...........	-327.56
	72	36.5	3.37619E-001	1.12194E-002	0.00000E+000	3.38200E-001	-1.09321E-004	10	...........	-327.56
	80	40.5	3.45616E-001	1.15482E-002	0.00000E+000	3.46200E-001	-1.06288E-004	10	...........	-327.56
	88	44.5	3.53563E-001	1.18400E-002	0.00000E+000	3.54200E-001	-1.10455E-004	10	...........	-327.56
	96	48.5	3.61586E-001	1.19224E-002	0.00000E+000	3.62200E-001	-1.06855E-004	10	...........	-327.56
	104	52.5	3.69600E-001	1.20124E-002	0.00000E+000	3.70200E-001	-1.08321E-004	10	...........	-327.56
	112	56.5	3.77551E-001	1.21989E-002	0.00000E+000	3.78200E-001	-1.09455E-004	10	...........	-327.56
	120	60.5	3.85569E-001	1.24264E-002	0.00000E+000	3.86200E-001	-1.07588E-004	10	...........	-327.56
	128	64.5	3.93579E-001	1.25515E-002	0.00000E+000	3.94200E-001	-1.06921E-004	10	...........	-327.56
	136	68.5	4.01538E-001	1.27840E-002	0.00000E+000	4.02200E-001	-1.08821E-004	10	...........	-327.56
	144	72.5	4.09549E-001	1.28028E-002	0.00000E+000	4.10200E-001	-1.05821E-004	10	...........	-327.56
	152	76.5	4.17551E-001	1.29719E-002	0.00000E+000	4.18200E-001	-1.07188E-004	10	...........	-327.56
	160	80.5	4.25534E-001	1.30942E-002	0.00000E+000	4.26200E-001	-1.06988E-004	10	...........	-327.56
	168	84.5	4.33532E-001	1.31639E-002	0.00000E+000	4.34200E-001	-1.07388E-004	10	...........	-327.56
	176	88.5	4.41551E-001	1.32394E-002	0.00000E+000	4.42200E-001	-1.06421E-004	10	...........	-327.56
	184	92.5	4.49529E-001	1.33137E-002	0.00000E+000	4.50200E-001	-1.12188E-004	10	...........	-327.56
	192	96.5	4.57529E-001	1.33537E-002	0.00000E+000	4.58200E-001	-1.08888E-004	10	...........	-327.56
	200	100.5	4.65533E-001	1.33721E-002	0.00000E+000	4.66200E-001	-1.11021E-004	10	...........	-327.56
	208	104.5	4.73531E-001	1.35090E-002	0.00000E+000	4.74200E-001	-1.05055E-004	10	...........	-327.56
	216	108.5	4.81514E-001	1.35666E-002	0.00000E+000	4.82200E-001	-1.08321E-004	10	...........	-327.56
	224	112.5	4.89516E-001	1.36803E-002	0.00000E+000	4.90200E-001	-1.05488E-004	10	...........	-327.56
	232	116.5	4.97513E-001	1.38113E-002	0.00000E+000	4.98200E-001	-1.05388E-004	10	...........	-327.56
	240	120.5	5.05506E-001	1.39124E-002	0.00000E+000	5.06200E-001	-1.11821E-004	10	...........	-327.56
	248	124.5	5.13466E-001	1.40962E-002	0.00000E+000	5.14200E-001	-1.05321E-004	10	...........	-327.56
	256	128.5	5.21449E-001	1.41627E-002	0.00000E+000	5.22200E-001	-1.05921E-004	10	...........	-327.56
	264	132.5	5.29438E-001	1.42509E-002	0.00000E+000	5.30200E-001	-1.04088E-004	10	...........	-327.56
	272	136.5	5.37427E-001	1.43796E-002	0.00000E+000	5.38200E-001	-1.03921E-004	10	...........	-327.56
	280	140.5	5.45431E-001	1.43844E-002	0.00000E+000	5.46200E-001	-1.04221E-004	10	...........	-327.56
	288	144.5	5.53404E-001	1.45520E-002	0.00000E+000	5.54200E-001	-1.03488E-004	10	...........	-327.56
	296	148.5	5.61419E-001	1.46985E-002	0.00000E+000	5.62200E-001	-1.04188E-004	10	...........	-327.56
	304	152.5	5.69419E-001	1.47986E-002	0.00000E+000	5.70200E-001	-1.04621E-004	10	...........	-327.56
	312	156.5	5.77361E-001	1.48957E-002	0.00000E+000	5.78200E-001	-1.11355E-004	10	...........	-327.56
	320	160.5	5.85376E-001	1.50066E-002	0.00000E+000	5.86200E-001	-1.04388E-004	10	...........	-327.56
	328	164.5	5.93398E-001	1.50620E-002	0.00000E+000	5.94200E-001	-1.04855E-004	10	...........	-327.56
	336	168.5	6.01385E-001	1.51401E-002	0.00000E+000	6.02200E-001	-1.03155E-004	10	...........	-327.56
	344	172.5	6.09333E-001	1.52028E-002	0.00000E+000	6.10200E-001	-1.06588E-004	10	...........	-327.56
	352	176.5	6.17338E-001	1.52283E-002	0.00000E+000	6.18200E-001	-1.04255E-004	10	...........	-327.56
	360	180.5	6.25351E-001	1.52046E-002	0.00000E+000	6.26200E-001	-1.04255E-004	10	...........	-327.56
	368	184.5	6.33273E-001	1.50981E-002	0.00000E+000	6.34200E-001	-1.04888E-004	10	...........	-327.56
	376	188.5	6.41334E-001	1.52084E-002	0.00000E+000	6.42200E-001	-1.08221E-004	10	...........	-327.56
	384	192.5	6.49327E-001	1.50150E-002	0.00000E+000	6.50200E-001	-1.03755E-004	10	...........	-327.56
	392	196.5	6.57263E-001	1.50595E-002	0.00000E+000	6.58200E-001	-1.05088E-004	10	...........	-327.56
	400	200.5	6.65286E-001	1.50571E-002	0.00000E+000	6.66200E-001	-1.08621E-004	10	...........	-327.56
	408	204.5	6.73318E-001	1.48785E-002	0.00000E+000	6.74200E-001	-1.05821E-004	10	...........	-327.56
	416	208.5	6.81246E-001	1.47197E-002	0.00000E+000	6.82200E-001	-1.02788E-004	10	...........	-327.56
	424	212.5	6.89255E-001	1.46785E-002	0.00000E+000	6.90200E-001	-1.05421E-004	10	...........	-327.56
	432	216.5	6.97294E-001	1.45581E-002	0.00000E+000	6.98200E-001	-1.05955E-004	10	...........	-327.56
	440	220.5	7.05215E-001	1.44958E-002	0.00000E+000	7.06200E-001	-1.06855E-004	10	...........	-327.56
	448	224.5	7.13236E-001	1.44926E-002	0.00000E+000	7.14200E-001	-1.04421E-004	10	...........	-327.56
	456	228.5	7.21242E-001	1.43235E-002	0.00000E+000	7.22200E-001	-1.06021E-004	10	...........	-327.56
	464	232.5	7.29242E-001	1.41913E-002	0.00000E+000	7.30200E-001	-1.04455E-004	10	...........	-327.56
	472	236.5	7.37186E-001	1.40710E-002	0.00000E+000	7.38200E-001	-1.07421E-004	10	...........	-327.56
	480	240.5	7.45207E-001	1.38830E-002	0.00000E+000	7.46200E-001	-1.02588E-004	10	...........	-327.56
	488	244.5	7.53260E-001	1.37529E-002	0.00000E+000	7.54200E-001	-1.05521E-004	10	...........	-327.56
	496	248.5	7.61159E-001	1.36702E-002	0.00000E+000	7.62200E-001	-1.05355E-004	10	...........	-327.56
	504	252.5	7.69211E-001	1.34892E-002	0.00000E+000	7.70200E-001	-1.05555E-004	10	...........	-327.56
	512	256.5	7.77220E-001	1.34418E-002	0.00000E+000	7.78200E-001	-1.02955E-004	10	...........	-327.56
	520	260.5	7.85156E-001	1.33340E-002	0.00000E+000	7.86200E-001	-1.05488E-004	10	...........	-327.56
	528	264.5	7.93177E-001	1.31955E-002	0.00000E+000	7.94200E-001	-1.03855E-004	10	...........	-327.56
	536	268.5	8.01221E-001	1.30723E-002	0.00000E+000	8.02200E-001	-1.05088E-004	10	...........	-327.56
	544	272.5	8.09144E-001	1.30239E-002	0.00000E+000	8.10200E-001	-1.07155E-004	10	...........	-327.56
	552	276.5	8.17161E-001	1.28721E-002	0.00000E+000	8.18200E-001	-1.06921E-004	10	...........	-327.56
	560	280.5	8.25138E-001	1.28460E-002	0.00000E+000	8.26200E-001	-1.02655E-004	10	...........	-327.56
	568	284.5	8.33060E-001	1.27243E-002	0.00000E+000	8.34200E-001	-1.07888E-004	10	...........	-327.56
	576	288.5	8.41095E-001	1.26735E-002	0.00000E+000	8.42200E-001	-1.06388E-004	10	...........	-327.56
	584	292.5	8.49151E-001	1.27263E-002	0.00000E+000	8.50200E-001	-1.07455E-004	10	...........	-327.56
	592	296.5	8.57145E-001	1.27505E-002	0.00000E+000	8.58200E-001	-1.05521E-004	10	...........	-327.56
	600	300.5	8.65080E-001	1.27228E-002	0.00000E+000	8.66200E-001	-1.06855E-004	10	...........	-327.56
	608	304.5	8.73113E-001	1.28519E-002	0.00000E+000	8.74200E-001	-1.08121E-004	10	...........	-327.56
	616	308.5	8.81119E-001	1.29138E-002	0.00000E+000	8.82200E-001	-1.07455E-004	10	...........	-327.56
	624	312.5	8.89072E-001	1.30364E-002	0.00000E+000	8.90200E-001	-1.05888E-004	10	...........	-327.56
	632	316.5	8.97094E-001	1.32157E-002	0.00000E+000	8.98200E-001	-1.07221E-004	10	...........	-327.56
	640	320.5	9.05084E-001	1.34446E-002	0.00000E+000	9.06200E-001	-1.07155E-004	10	...........	-327.56
	648	324.5	9.13031E-001	1.37503E-002	0.00000E+000	9.14200E-001	-1.05455E-004	10	...........	-327.56
	656	328.5	9.21052E-001	1.40095E-002	0.00000E+000	9.22200E-001	-1.05921E-004	10	...........	-327.56
	664	332.5	9.29031E-001	1.43218E-002	0.00000E+000	9.30200E-001	-1.07155E-004	10	...........	-327.56
	672	336.5	9.36974E-001	1.48089E-002	0.00000E+000	9.38200E-001	-1.06455E-004	10	...........	-327.56
	680	340.5	9.44976E-001	1.53561E-002	0.00000E+000	9.46200E-001	-1.09588E-004	10	...........	-327.56
	688	344.5	9.53018E-001	1.59609E-002	0.00000E+000	9.54200E-001	-1.06321E-004	10	...........	-327.56
	696	348.5	9.60899E-001	1.68011E-002	0.00000E+000	9.62200E-001	-1.04321E-004	10	...........	-327.56
	704	352.5	9.68913E-001	1.77727E-002	0.00000E+000	9.70200E-001	-1.06855E-004	10	...........	-327.56
	712	356.5	9.76947E-001	1.88058E-002	0.00000E+000	9.78200E-001	-1.03488E-004	10	...........	-327.56
	720	360.5	9.84927E-001	2.00230E-002	0.00000E+000	9.86200E-001	-1.03788E-004	10	...........	-327.56
	728	364.5	9.92842E-001	2.12922E-002	0.00000E+000	9.94200E-001	-1.01755E-004	10	...........	-327.56
	736	368.5	1.00086E+000	2.26798E-002	0.00000E+000	1.00220E+000	-1.02088E-004	10	...........	-327.56
	744	372.5	1.00887E+000	2.40737E-002	0.00000E+000	1.01020E+000	-1.00355E-004	10	...........	-327.56
	752	376.5	1.01678E+000	2.58081E-002	0.00000E+000	1.01820E+000	-9.95881E-005	10	...........	-327.56
	760	380.5	1.02507E+000	2.75286E-002	0.00000E+000	1.02620E+000	-1.04388E-004	11	...........	-327.56
	768	384.5	1.03308E+000	2.94833E-002	0.00000E+000	1.03420E+000	-1.06788E-004	11	...........	-327.56
	776	388.5	1.04101E+000	3.13875E-002	0.00000E+000	1.04220E+000	-1.06055E-004	11	...........	-327.56
	784	392.5	1.04903E+000	3.33598E-002	0.00000E+000	1.05020E+000	-1.09288E-004	11	...........	-327.56
	792	396.5	1.05706E+000	3.52849E-002	0.00000E+000	1.05820E+000	-1.03955E-004	11	...........	-327.56
	800	400.5	1.06500E+000	3.71270E-002	0.00000E+000	1.06620E+000	-1.05955E-004	11	...........	-327.56
	808	404.5	1.07302E+000	3.87523E-002	0.00000E+000	1.07420E+000	-1.06855E-004	11	...........	-327.56
	816	408.5	1.08105E+000	4.00648E-002	0.00000E+000	1.08220E+000	-1.04388E-004	11	...........	-327.56
	824	412.5	1.08894E+000	4.15792E-002	0.00000E+000	1.09020E+000	-1.10555E-004	11	...........	-327.56
	832	416.5	1.09699E+000	4.26314E-002	0.00000E+000	1.09820E+000	-1.09988E-004	11	...........	-327.56
	840	420.5	1.10502E+000	4.34042E-002	0.00000E+000	1.10620E+000	-1.05721E-004	11	...........	-327.56
	848	424.5	1.11301E+000	4.39531E-002	0.00000E+000	1.11420E+000	-1.03788E-004	11	...........	-327.56
	856	428.5	1.12099E+000	4.45282E-002	0.00000E+000	1.12220E+000	-1.09755E-004	11	...........	-327.56
	864	432.5	1.12897E+000	4.52545E-002	0.00000E+000	1.13020E+000	-1.06121E-004	11	...........	-327.56
	872	436.5	1.13697E+000	4.63676E-002	0.00000E+000	1.13820E+000	-1.07355E-004	11	...........	-327.56
	880	440.5	1.14488E+000	4.80929E-002	0.00000E+000	1.14620E+000	-1.08121E-004	11	...........	-327.56
	888	444.5	1.15292E+000	4.99266E-002	0.00000E+000	1.15420E+000	-1.08055E-004	11	...........	-327.56
	896	448.5	1.16095E+000	5.23439E-002	0.00000E+000	1.16220E+000	-1.06821E-004	11	...........	-327.56
	904	452.5	1.16887E+000	5.56044E-002	0.00000E+000	1.17020E+000	-1.07188E-004	11	...........	-327.56
	912	456.5	1.17686E+000	5.93173E-002	0.00000E+000	1.17820E+000	-1.07855E-004	11	...........	-327.56
	920	460.5	1.18490E+000	6.31130E-002	0.00000E+000	1.18620E+000	-1.05321E-004	11	...........	-327.56
	928	464.5	1.19279E+000	6.74989E-002	0.00000E+000	1.19420E+000	-1.04655E-004	11	...........	-327.56
	936	468.5	1.20083E+000	7.18856E-002	0.00000E+000	1.20220E+000	-1.06888E-004	11	...........	-327.56
	944	472.5	1.20887E+000	7.65936E-002	0.00000E+000	1.21020E+000	-1.09788E-004	11	...........	-327.56
	952	476.5	1.21675E+000	8.19024E-002	0.00000E+000	1.21820E+000	-1.07355E-004	11	...........	-327.56
	960	480.5	1.22478E+000	8.74731E-002	0.00000E+000	1.22620E+000	-1.02921E-004	11	...........	-327.56
	968	484.5	1.23280E+000	9.37004E-002	0.00000E+000	1.23420E+000	-1.04221E-004	11	...........	-327.56
	976	488.5	1.24080E+000	1.00373E-001	0.00000E+000	1.24220E+000	-1.05821E-004	11	...........	-327.56
	984	492.5	1.24874E+000	1.06654E-001	0.00000E+000	1.25020E+000	-1.01421E-004	11	...........	-327.56
	992	496.5	1.25677E+000	1.14415E-001	0.00000E+000	1.25820E+000	-1.02088E-004	11	...........	-327.56
	1000	500.5	1.26477E+000	1.22051E-001	0.00000E+000	1.26620E+000	-1.03155E-004	11	...........	-327.56
	1008	504.5	1.27269E+000	1.31544E-001	0.00000E+000	1.27420E+000	-1.05788E-004	11	...........	-327.56
	1016	508.5	1.28069E+000	1.42353E-001	0.00000E+000	1.28220E+000	-1.00021E-004	11	...........	-327.56
	1024	512.5	1.28870E+000	1.52950E-001	0.00000E+000	1.29020E+000	-1.07121E-004	11	...........	-327.56
	1032	516.5	1.29661E+000	1.64127E-001	0.00000E+000	1.29820E+000	-1.02355E-004	11	...........	-327.56
	1040	520.5	1.30460E+000	1.76067E-001	0.00000E+000	1.30620E+000	-1.04088E-004	11	...........	-327.56
	1048	524.5	1.31263E+000	1.88642E-001	0.00000E+000	1.31420E+000	-1.03321E-004	11	...........	-327.56
	1056	528.5	1.32052E+000	2.02382E-001	0.00000E+000	1.32220E+000	-1.05355E-004	11	...........	-327.56
	1064	532.5	1.32854E+000	2.16719E-001	0.00000E+000	1.33020E+000	-9.88214E-005	11	...........	-327.56
	1072	536.5	1.33650E+000	2.31895E-001	0.00000E+000	1.33820E+000	-1.04121E-004	11	...........	-327.56
	1080	540.5	1.34437E+000	2.46689E-001	0.00000E+000	1.34620E+000	-1.02155E-004	11	...........	-327.56
	1088	544.5	1.35238E+000	2.62064E-001	0.00000E+000	1.35420E+000	-1.00921E-004	11	...........	-327.56
	1096	548.5	1.36067E+000	2.79875E-001	0.00000E+000	1.36220E+000	-1.06488E-004	12	...........	-327.56
	1104	552.5	1.36869E+000	2.94562E-001	0.00000E+000	1.37020E+000	-1.02888E-004	12	...........	-327.56
	1112	556.5	1.37662E+000	3.14088E-001	0.00000E+000	1.37820E+000	-1.07688E-004	12	...........	-327.56
	1120	560.5	1.38464E+000	3.30906E-001	0.00000E+000	1.38620E+000	-1.06555E-004	12	...........	-327.56
	1128	564.5	1.39264E+000	3.48069E-001	0.00000E+000	1.39420E+000	-1.05488E-004	12	...........	-327.56
	1136	568.5	1.40056E+000	3.65271E-001	0.00000E+000	1.40220E+000	-1.07321E-004	12	...........	-327.56
	1144	572.5	1.40856E+000	3.80358E-001	0.00000E+000	1.41020E+000	-1.06255E-004	12	...........	-327.56
	1152	576.5	1.41659E+000	3.98119E-001	0.00000E+000	1.41820E+000	-1.07988E-004	12	...........	-327.56
	1160	580.5	1.42450E+000	4.13735E-001	0.00000E+000	1.42620E+000	-1.04855E-004	12	...........	-327.56
	1168	584.5	1.43250E+000	4.29543E-001	0.00000E+000	1.43420E+000	-1.07555E-004	12	...........	-327.56
	1176	588.5	1.44052E+000	4.43590E-001	0.00000E+000	1.44220E+000	-1.06321E-004	12	...........	-327.56
	1184	592.5	1.44841E+000	4.59299E-001	0.00000E+000	1.45020E+000	-1.06588E-004	12	...........	-327.56
	1192	596.5	1.45642E+000	4.72726E-001	0.00000E+000	1.45820E+000	-1.07121E-004	12	...........	-327.56
	1200	600.5	1.46447E+000	4.87864E-001	0.00000E+000	1.46620E+000	-1.06021E-004	12	...........	-327.56
	1208	604.5	1.47237E+000	5.07687E-001	0.00000E+000	1.47420E+000	-1.07455E-004	12	...........	-327.56
	1216	608.5	1.48038E+000	5.24002E-001	0.00000E+000	1.48220E+000	-1.07955E-004	12	...........	-327.56
	1224	612.5	1.48840E+000	5.38294E-001	0.00000E+000	1.49020E+000	-1.06988E-004	12	...........	-327.56
	1232	616.5	1.49640E+000	5.56176E-001	0.00000E+000	1.49820E+000	-1.07488E-004	12	...........	-327.56
	1240	620.5	1.50431E+000	5.74543E-001	0.00000E+000	1.50620E+000	-1.05521E-004	12	...........	-327.56
	1248	624.5	1.51236E+000	5.93554E-001	0.00000E+000	1.51420E+000	-1.03788E-004	12	...........	-327.56
	1256	628.5	1.52037E+000	6.10908E-001	0.00000E+000	1.52220E+000	-1.05621E-004	12	...........	-327.56
	1264	632.5	1.52828E+000	6.28222E-001	0.00000E+000	1.53020E+000	-1.07621E-004	12	...........	-327.56
	1272	636.5	1.53625E+000	6.46401E-001	0.00000E+000	1.53820E+000	-1.06355E-004	12	...........	-327.56
	1280	640.5	1.54428E+000	6.67214E-001	0.00000E+000	1.54620E+000	-1.07821E-004	12	...........	-327.56
	1288	644.5	1.55215E+000	6.89136E-001	0.00000E+000	1.55420E+000	-1.05988E-004	12	...........	-327.56
	1296	648.5	1.56018E+000	7.11324E-001	0.00000E+000	1.56220E+000	-1.09455E-004	12	...........	-327.56
	1304	652.5	1.56822E+000	7.29406E-001	0.00000E+000	1.57020E+000	-1.03188E-004	12	...........	-327.56
	1312	656.5	1.57607E+000	7.50961E-001	0.00000E+000	1.57820E+000	-1.05721E-004	12	...........	-327.56
	1320	660.5	1.58412E+000	7.68930E-001	0.00000E+000	1.58620E+000	-1.08588E-004	12	...........	-327.56
	1328	664.5	1.59216E+000	7.83330E-001	0.00000E+000	1.59420E+000	-1.10421E-004	12	...........	-327.56
	1336	668.5	1.60010E+000	8.04199E-001	0.00000E+000	1.60220E+000	-1.02655E-004	12	...........	-327.56
	1344	672.5	1.60808E+000	8.26818E-001	0.00000E+000	1.61020E+000	-1.05155E-004	12	...........	-327.56
	1352	676.5	1.61611E+000	8.42638E-001	0.00000E+000	1.61820E+000	-1.09588E-004	12	...........	-327.56
	1360	680.5	1.62410E+000	8.62897E-001	0.00000E+000	1.62620E+000	-1.08555E-004	12	...........	-327.56
	1368	684.5	1.63200E+000	8.83836E-001	0.00000E+000	1.63420E+000	-1.07155E-004	12	...........	-327.56
	1376	688.5	1.63999E+000	9.06477E-001	0.00000E+000	1.64220E+000	-1.06621E-004	12	...........	-327.56
	1384	692.5	1.64800E+000	9.27660E-001	0.00000E+000	1.65020E+000	-1.06588E-004	12	...........	-327.56
	1392	696.5	1.65596E+000	9.38193E-001	0.00000E+000	1.65820E+000	-1.06888E-004	12	...........	-327.56
	1400	700.5	1.66397E+000	9.60075E-001	0.00000E+000	1.66620E+000	-1.08388E-004	12	...........	-327.56
	1408	704.5	1.67196E+000	9.79412E-001	0.00000E+000	1.67420E+000	-1.05655E-004	12	...........	-327.56
	1416	708.5	1.67993E+000	9.99823E-001	0.00000E+000	1.68220E+000	-1.07055E-004	12	...........	-327.56
	1424	712.5	1.68793E+000	1.02034E+000	0.00000E+000	1.69020E+000	-1.08955E-004	12	...........	-327.56
	1432	716.5	1.69592E+000	1.03719E+000	0.00000E+000	1.69820E+000	-1.05088E-004	12	...........	-327.56
	1440	720.5	1.69191E+000	1.03026E+000	0.00000E+000	1.69420E+000	-1.02821E-004	12	...........	-327.56
	1448	724.5	1.68388E+000	1.01752E+000	0.00000E+000	1.68620E+000	-1.00421E-004	12	...........	-327.56
	1456	728.5	1.67595E+000	1.00123E+000	0.00000E+000	1.67820E+000	-1.03855E-004	12	...........	-327.56
	1464	732.5	1.66796E+000	9.90043E-001	0.00000E+000	1.67020E+000	-1.05621E-004	12	...........	-327.56
	1472	736.5	1.65993E+000	9.70396E-001	0.00000E+000	1.66220E+000	-1.06121E-004	12	...........	-327.56
	1480	740.5	1.65191E+000	9.51924E-001	0.00000E+000	1.65420E+000	-1.04521E-004	12	...........	-327.56
	1488	744.5	1.64398E+000	9.37960E-001	0.00000E+000	1.64620E+000	-1.04788E-004	12	...........	-327.56
	1496	748.5	1.63600E+000	9.20784E-001	0.00000E+000	1.63820E+000	-1.08655E-004	12	...........	-327.56
	1504	752.5	1.62799E+000	9.05641E-001	0.00000E+000	1.63020E+000	-1.08788E-004	12	...........	-327.56
	1512	756.5	1.62007E+000	8.90776E-001	0.00000E+000	1.62220E+000	-1.08321E-004	12	...........	-327.56
	1520	760.5	1.61204E+000	8.68854E-001	0.00000E+000	1.61420E+000	-1.09655E-004	12	...........	-327.56
	1528	764.5	1.60404E+000	8.55845E-001	0.00000E+000	1.60620E+000	-1.06688E-004	12	...........	-327.56
	1536	768.5	1.59611E+000	8.37222E-001	0.00000E+000	1.59820E+000	-1.08788E-004	12	...........	-327.56
	1544	772.5	1.58811E+000	8.23353E-001	0.00000E+000	1.59020E+000	-1.06288E-004	12	...........	-327.56
	1552	776.5	1.58011E+000	8.06057E-001	0.00000E+000	1.58220E+000	-1.10688E-004	12	...........	-327.56
	1560	780.5	1.57218E+000	7.84362E-001	0.00000E+000	1.57420E+000	-1.09555E-004	12	...........	-327.56
	1568	784.5	1.56420E+000	7.66833E-001	0.00000E+000	1.56620E+000	-1.06355E-004	12	...........	-327.56
	1576	788.5	1.55617E+000	7.46366E-001	0.00000E+000	1.55820E+000	-1.04921E-004	12	...........	-327.56
	1584	792.5	1.54821E+000	7.31344E-001	0.00000E+000	1.55020E+000	-1.03855E-004	12	...........	-327.56
	1592	796.5	1.54022E+000	7.12860E-001	0.00000E+000	1.54220E+000	-1.05088E-004	12	...........	-327.56
	1600	800.5	1.53225E+000	6.96660E-001	0.00000E+000	1.53420E+000	-1.03821E-004	12	...........	-327.56
	1608	804.5	1.52422E+000	6.78202E-001	0.00000E+000	1.52620E+000	-1.07688E-004	12	...........	-327.56
	1616	808.5	1.51630E+000	6.64473E-001	0.00000E+000	1.51820E+000	-1.01955E-004	12	...........	-327.56
	1624	812.5	1.50829E+000	6.44297E-001	0.00000E+000	1.51020E+000	-1.05555E-004	12	...........	-327.56
	1632	816.5	1.50029E+000	6.29204E-001	0.00000E+000	1.50220E+000	-1.05788E-004	12	...........	-327.56
	1640	820.5	1.49237E+000	6.13880E-001	0.00000E+000	1.49420E+000	-1.06288E-004	12	...........	-327.56
	1648	824.5	1.48434E+000	5.93550E-001	0.00000E+000	1.48620E+000	-1.05021E-004	12	...........	-327.56
	1656	828.5	1.47635E+000	5.73526E-001	0.00000E+000	1.47820E+000	-1.06421E-004	12	...........	-327.56
	1664	832.5	1.46843E+000	5.57740E-001	0.00000E+000	1.47020E+000	-1.10055E-004	12	...........	-327.56
	1672	836.5	1.46041E+000	5.38897E-001	0.00000E+000	1.46220E+000	-1.07855E-004	12	...........	-327.56
	1680	840.5	1.45239E+000	5.22906E-001	0.00000E+000	1.45420E+000	-1.02955E-004	12	...........	-327.56
	1688	844.5	1.44446E+000	5.07021E-001	0.00000E+000	1.44620E+000	-1.09221E-004	12	...........	-327.56
	1696	848.5	1.43646E+000	4.87853E-001	0.00000E+000	1.43820E+000	-1.05055E-004	12	...........	-327.56
	1704	852.5	1.42847E+000	4.71135E-001	0.00000E+000	1.43020E+000	-1.07355E-004	12	...........	-327.56
	1712	856.5	1.42054E+000	4.54759E-001	0.00000E+000	1.42220E+000	-1.01955E-004	12	...........	-327.56
	1720	860.5	1.41257E+000	4.38781E-001	0.00000E+000	1.41420E+000	-1.05855E-004	12	...........	-327.56
	1728	864.5	1.40454E+000	4.23197E-001	0.00000E+000	1.40620E+000	-1.04888E-004	12	...........	-327.56
	1736	868.5	1.39656E+000	4.08131E-001	0.00000E+000	1.39820E+000	-1.09855E-004	12	...........	-327.56
	1744	872.5	1.38864E+000	3.90675E-001	0.00000E+000	1.39020E+000	-1.04221E-004	12	...........	-327.56
	1752	876.5	1.38062E+000	3.75300E-001	0.00000E+000	1.38220E+000	-1.07755E-004	12	...........	-327.56
	1760	880.5	1.37266E+000	3.60972E-001	0.00000E+000	1.37420E+000	-1.05888E-004	12	...........	-327.56
	1768	884.5	1.36467E+000	3.46053E-001	0.00000E+000	1.36620E+000	-1.02155E-004	12	...........	-327.56
	1776	888.5	1.35666E+000	3.32655E-001	0.00000E+000	1.35820E+000	-1.04088E-004	12	...........	-327.56
	1784	892.5	1.34870E+000	3.19108E-001	0.00000E+000	1.35020E+000	-1.04955E-004	12	...........	-327.56
	1792	896.5	1.34070E+000	3.06131E-001	0.00000E+000	1.34220E+000	-1.08355E-004	12	...........	-327.56
	1800	900.5	1.33272E+000	2.93588E-001	0.00000E+000	1.33420E+000	-1.07488E-004	12	...........	-327.56
	1808	904.5	1.32474E+000	2.81144E-001	0.00000E+000	1.32620E+000	-1.05555E-004	12	...........	-327.56
	1816	908.5	1.31677E+000	2.68021E-001	0.00000E+000	1.31820E+000	-1.10288E-004	12	...........	-327.56
	1824	912.5	1.30877E+000	2.55121E-001	0.00000E+000	1.31020E+000	-1.04821E-004	12	...........	-327.56
	1832	916.5	1.30076E+000	2.42103E-001	0.00000E+000	1.30220E+000	-1.07321E-004	12	...........	-327.56
	1840	920.5	1.29258E+000	2.28381E-001	0.00000E+000	1.29420E+000	-1.03921E-004	11	...........	-327.56
	1848	924.5	1.28462E+000	2.15563E-001	0.00000E+000	1.28620E+000	-1.04455E-004	11	...........	-327.56
	1856	928.5	1.27662E+000	2.02909E-001	0.00000E+000	1.27820E+000	-1.03988E-004	11	...........	-327.56
	1864	932.5	1.26866E+000	1.89611E-001	0.00000E+000	1.27020E+000	-1.04221E-004	11	...........	-327.56
	1872	936.5	1.26069E+000	1.77127E-001	0.00000E+000	1.26220E+000	-1.04088E-004	11	...........	-327.56
	1880	940.5	1.25269E+000	1.65076E-001	0.00000E+000	1.25420E+000	-1.07588E-004	11	...........	-327.56
	1888	944.5	1.24471E+000	1.53751E-001	0.00000E+000	1.24620E+000	-1.07421E-004	11	...........	-327.56
	1896	948.5	1.23675E+000	1.42596E-001	0.00000E+000	1.23820E+000	-1.04121E-004	11	...........	-327.56
	1904	952.5	1.22874E+000	1.32332E-001	0.00000E+000	1.23020E+000	-1.08388E-004	11	...........	-327.56
	1912	956.5	1.22074E+000	1.22756E-001	0.00000E+000	1.22220E+000	-1.03988E-004	11	...........	-327.56
	1920	960.5	1.21279E+000	1.13378E-001	0.00000E+000	1.21420E+000	-1.06655E-004	11	...........	-327.56
	1928	964.5	1.20482E+000	1.05151E-001	0.00000E+000	1.20620E+000	-1.08855E-004	11	...........	-327.56
	1936	968.5	1.19677E+000	9.61958E-002	0.00000E+000	1.19820E+000	-1.05921E-004	11	...........	-327.56
	1944	972.5	1.18888E+000	8.82273E-002	0.00000E+000	1.19020E+000	-1.08221E-004	11	...........	-327.56
	1952	976.5	1.18085E+000	8.13976E-002	0.00000E+000	1.18220E+000	-1.09055E-004	11	...........	-327.56
	1960	980.5	1.17286E+000	7.57406E-002	0.00000E+000	1.17420E+000	-1.04621E-004	11	...........	-327.56
	1968	984.5	1.16488E+000	7.00728E-002	0.00000E+000	1.16620E+000	-1.05121E-004	11	...........	-327.56
	1976	988.5	1.15694E+000	6.44156E-002	0.00000E+000	1.15820E+000	-1.07988E-004	11	...........	-327.56
	1984	992.5	1.14889E+000	5.94452E-002	0.00000E+000	1.15020E+000	-1.03088E-004	11	...........	-327.56
	1992	996.5	1.14086E+000	5.47360E-002	0.00000E+000	1.14220E+000	-1.10555E-004	11	...........	-327.56
	2000	1000.5	1.13297E+000	5.03915E-002	0.00000E+000	1.13420E+000	-1.04321E-004	11	...........	-327.56
	2008	1004.5	1.12499E+000	4.59881E-002	0.00000E+000	1.12620E+000	-1.05655E-004	11	...........	-327.56
	2016	1008.5	1.11695E+000	4.20128E-002	0.00000E+000	1.11820E+000	-1.05988E-004	11	...........	-327.56
	2024	1012.5	1.10904E+000	3.82140E-002	0.00000E+000	1.11020E+000	-1.08521E-004	11	...........	-327.56
	2032	1016.5	1.10102E+000	3.50932E-002	0.00000E+000	1.10220E+000	-1.05155E-004	11	...........	-327.56
	2040	1020.5	1.09300E+000	3.23284E-002	0.00000E+000	1.09420E+000	-1.05555E-004	11	...........	-327.56
	2048	1024.5	1.08507E+000	2.97663E-002	0.00000E+000	1.08620E+000	-1.03055E-004	11	...........	-327.56
	2056	1028.5	1.07707E+000	2.73994E-002	0.00000E+000	1.07820E+000	-1.06921E-004	11	...........	-327.56
	2064	1032.5	1.06904E+000	2.52355E-002	0.00000E+000	1.07020E+000	-1.05521E-004	11	...........	-327.56
	2072	1036.5	1.06082E+000	2.32868E-002	0.00000E+000	1.06220E+000	-1.03688E-004	10	...........	-327.56
	2080	1040.5	1.05286E+000	2.15857E-002	0.00000E+000	1.05420E+000	-1.05355E-004	10	...........	-327.56
	2088	1044.5	1.04483E+000	1.99353E-002	0.00000E+000	1.04620E+000	-1.03388E-004	10	...........	-327.56
	2096	1048.5	1.03687E+000	1.84873E-002	0.00000E+000	1.03820E+000	-1.02321E-004	10	...........	-327.56
	2104	1052.5	1.02893E+000	1.71867E-002	0.00000E+000	1.03020E+000	-1.07921E-004	10	...........	-327.56
	2112	1056.5	1.02093E+000	1.60494E-002	0.00000E+000	1.02220E+000	-1.03588E-004	10	...........	-327.56
	2120	1060.5	1.01286E+000	1.48491E-002	0.00000E+000	1.01420E+000	-1.07988E-004	10	...........	-327.56
	2128	1064.5	1.00501E+000	1.38843E-002	0.00000E+000	1.00620E+000	-1.03788E-004	10	...........	-327.56
	2136	1068.5	9.96989E-001	1.30416E-002	0.00000E+000	9.98200E-001	-1.05921E-004	10	...........	-327.56
	2144	1072.5	9.88977E-001	1.22838E-002	0.00000E+000	9.90200E-001	-1.05088E-004	10	...........	-327.56
	2152	1076.5	9.81061E-001	1.15988E-002	0.00000E+000	9.82200E-001	-1.04621E-004	10	...........	-327.56
	2160	1080.5	9.73025E-001	1.10196E-002	0.00000E+000	9.74200E-001	-1.05988E-004	10	...........	-327.56
	2168	1084.5	9.65022E-001	1.04803E-002	0.00000E+000	9.66200E-001	-1.03588E-004	10	...........	-327.56
	2176	1088.5	9.57093E-001	1.00407E-002	0.00000E+000	9.58200E-001	-1.07021E-004	10	...........	-327.56
	2184	1092.5	9.49075E-001	9.75490E-003	0.00000E+000	9.50200E-001	-1.07121E-004	10	...........	-327.56
	2192	1096.5	9.41051E-001	9.39393E-003	0.00000E+000	9.42200E-001	-1.05655E-004	10	...........	-327.56
	2200	1100.5	9.33110E-001	9.13545E-003	0.00000E+000	9.34200E-001	-1.03721E-004	10	...........	-327.56
	2208	1104.5	9.25105E-001	8.89555E-003	0.00000E+000	9.26200E-001	-1.05421E-004	10	...........	-327.56
	2216	1108.5	9.17121E-001	8.77016E-003	0.00000E+000	9.18200E-001	-1.04388E-004	10	...........	-327.56
	2224	1112.5	9.09078E-001	8.58707E-003	0.00000E+000	9.10200E-001	-1.03521E-004	10	...........	-327.56
	2232	1116.5	9.01177E-001	8.48641E-003	0.00000E+000	9.02200E-001	-1.05855E-004	10	...........	-327.56
	2240	1120.5	8.93135E-001	8.36979E-003	0.00000E+000	8.94200E-001	-1.04455E-004	10	...........	-327.56
	2248	1124.5	8.85113E-001	8.32967E-003	0.00000E+000	8.86200E-001	-1.05421E-004	10	...........	-327.56
	2256	1128.5	8.77205E-001	8.24138E-003	0.00000E+000	8.78200E-001	-1.04121E-004	10	...........	-327.56
	2264	1132.5	8.69157E-001	8.19666E-003	0.00000E+000	8.70200E-001	-1.03821E-004	10	...........	-327.56
	2272	1136.5	8.61156E-001	8.14354E-003	0.00000E+000	8.62200E-001	-1.05221E-004	10	...........	-327.56
	2280	1140.5	8.53221E-001	8.04485E-003	0.00000E+000	8.54200E-001	-1.05355E-004	10	...........	-327.56
	2288	1144.5	8.45178E-001	7.97147E-003	0.00000E+000	8.46200E-001	-1.02055E-004	10	...........	-327.56
	2296	1148.5	8.37161E-001	7.91275E-003	0.00000E+000	8.38200E-001	-1.07121E-004	10	...........	-327.56
	2304	1152.5	8.29241E-001	7.84250E-003	0.00000E+000	8.30200E-001	-1.03055E-004	10	...........	-327.56
	2312	1156.5	8.21208E-001	7.82495E-003	0.00000E+000	8.22200E-001	-1.07055E-004	10	...........	-327.56
	2320	1160.5	8.13219E-001	7.74190E-003	0.00000E+000	8.14200E-001	-1.03621E-004	10	...........	-327.56
	2328	1164.5	8.05308E-001	7.69765E-003	0.00000E+000	8.06200E-001	-1.06955E-004	10	...........	-327.56
	2336	1168.5	7.97304E-001	7.73773E-003	0.00000E+000	7.98200E-001	-1.09521E-004	10	...........	-327.56
	2344	1172.5	7.89240E-001	7.77178E-003	0.00000E+000	7.90200E-001	-1.09888E-004	10	...........	-327.56
	2352	1176.5	7.81214E-001	7.72114E-003	0.00000E+000	7.82200E-001	-1.04288E-004	10	...........	-327.56
	2360	1180.5	7.73315E-001	7.77855E-003	0.00000E+000	7.74200E-001	-1.05621E-004	10	...........	-327.56
	2368	1184.5	7.65272E-001	7.77273E-003	0.00000E+000	7.66200E-001	-1.04955E-004	10	...........	-327.56
	2376	1188.5	7.57250E-001	7.72191E-003	0.00000E+000	7.58200E-001	-1.09088E-004	10	...........	-327.56
	2384	1192.5	7.49324E-001	7.72109E-003	0.00000E+000	7.50200E-001	-1.06021E-004	10	...........	-327.56
	2392	1196.5	7.41296E-001	7.74170E-003	0.00000E+000	7.42200E-001	-1.04955E-004	10	...........	-327.56
	2400	1200.5	7.33256E-001	7.68772E-003	0.00000E+000	7.34200E-001	-1.03821E-004	10	...........	-327.56
	2408	1204.5	7.25333E-001	7.72423E-003	0.00000E+000	7.26200E-001	-1.03488E-004	10	...........	-327.56
	2416	1208.5	7.17302E-001	7.71040E-003	0.00000E+000	7.18200E-001	-1.07421E-004	10	...........	-327.56
	2424	1212.5	7.09343E-001	7.67364E-003	0.00000E+000	7.10200E-001	-1.05488E-004	10	...........	-327.56
	2432	1216.5	7.01407E-001	7.72532E-003	0.00000E+000	7.02200E-001	-1.00855E-004	10	...........	-327.56
	2440	1220.5	6.93389E-001	7.67379E-003	0.00000E+000	6.94200E-001	-1.03188E-004	10	...........	-327.56
	2448	1224.5	6.85357E-001	7.64387E-003	0.00000E+000	6.86200E-001	-1.06288E-004	10	...........	-327.56
	2456	1228.5	6.77412E-001	7.56286E-003	0.00000E+000	6.78200E-001	-1.06455E-004	10	...........	-327.56
	2464	1232.5	6.69419E-001	7.41270E-003	0.00000E+000	6.70200E-001	-1.05388E-004	10	...........	-327.56
	2472	1236.5	6.61384E-001	7.28064E-003	0.00000E+000	6.62200E-001	-1.05455E-004	10	...........	-327.56
	2480	1240.5	6.53344E-001	7.09780E-003	0.00000E+000	6.54200E-001	-1.04355E-004	10	...........	-327.56
	2488	1244.5	6.45430E-001	6.93849E-003	0.00000E+000	6.46200E-001	-1.04288E-004	10	...........	-327.56
	2496	1248.5	6.37398E-001	6.80523E-003	0.00000E+000	6.38200E-001	-1.03288E-004	10	...........	-327.56
	2504	1252.5	6.29374E-001	6.64810E-003	0.00000E+000	6.30200E-001	-1.07555E-004	10	...........	-327.56
	2512	1256.5	6.21448E-001	6.59252E-003	0.00000E+000	6.22200E-001	-1.02921E-004	10	...........	-327.56
	2520	1260.5	6.13434E-001	6.49168E-003	0.00000E+000	6.14200E-001	-1.02955E-004	10	...........	-327.56
	2528	1264.5	6.05429E-001	6.36970E-003	0.00000E+000	6.06200E-001	-1.04688E-004	10	...........	-327.56
	2536	1268.5	5.97501E-001	6.17630E-003	0.00000E+000	5.98200E-001	-1.07088E-004	10	...........	-327.56
	2544	1272.5	5.89483E-001	6.12362E-003	0.00000E+000	5.90200E-001	-1.03855E-004	10	...........	-327.56
	2552	1276.5	5.81458E-001	5.97108E-003	0.00000E+000	5.82200E-001	-1.05855E-004	10	...........	-327.56
	2560	1280.5	5.73507E-001	5.87003E-003	0.00000E+000	5.74200E-001	-1.04155E-004	10	...........	-327.56
	2568	1284.5	5.65513E-001	5.69430E-003	0.00000E+000	5.66200E-001	-1.04921E-004	10	...........	-327.56
	2576	1288.5	5.57494E-001	5.56476E-003	0.00000E+000	5.58200E-001	-1.04088E-004	10	...........	-327.56
	2584	1292.5	5.49541E-001	5.42748E-003	0.00000E+000	5.50200E-001	-1.07821E-004	10	...........	-327.56
	2592	1296.5	5.41545E-001	5.25140E-003	0.00000E+000	5.42200E-001	-1.04621E-004	10	...........	-327.56
	2600	1300.5	5.33502E-001	5.10700E-003	0.00000E+000	5.34200E-001	-1.05188E-004	10	...........	-327.56
	2608	1304.5	5.25467E-001	4.97859E-003	0.00000E+000	5.26200E-001	-1.07488E-004	10	...........	-327.56
	2616	1308.5	5.17567E-001	4.67884E-003	0.00000E+000	5.18200E-001	-1.04288E-004	10	...........	-327.56
	2624	1312.5	5.09579E-001	4.57160E-003	0.00000E+000	5.10200E-001	-1.06655E-004	10	...........	-327.56
	2632	1316.5	5.01549E-001	4.39787E-003	0.00000E+000	5.02200E-001	-1.06621E-004	10	...........	-327.56
	2640	1320.5	4.93636E-001	4.14466E-003	0.00000E+000	4.94200E-001	-1.08021E-004	10	...........	-327.56
	2648	1324.5	4.85594E-001	3.85170E-003	0.00000E+000	4.86200E-001	-1.08388E-004	10	...........	-327.56
	2656	1328.5	4.77578E-001	3.74897E-003	0.00000E+000	4.78200E-001	-1.03521E-004	10	...........	-327.56
	2664	1332.5	4.69662E-001	3.42137E-003	0.00000E+000	4.70200E-001	-1.08888E-004	10	...........	-327.56
	2672	1336.5	4.61638E-001	3.23684E-003	0.00000E+000	4.62200E-001	-1.06755E-004	10	...........	-327.56
	2680	1340.5	4.53600E-001	3.03423E-003	0.00000E+000	4.54200E-001	-1.10321E-004	10	...........	-327.56
	2688	1344.5	4.45699E-001	2.88024E-003	0.00000E+000	4.46200E-001	-1.11821E-004	10	...........	-327.56
	2696	1348.5	4.37670E-001	2.62406E-003	0.00000E+000	4.38200E-001	-1.09321E-004	10	...........	-327.56
	2704	1352.5	4.29383E-001	2.31244E-003	0.00000E+000	4.30200E-001	-1.04855E-004	9	...........	-327.56
	2712	1356.5	4.21467E-001	2.15346E-003	0.00000E+000	4.22200E-001	-1.01355E-004	9	...........	-327.56
	2720	1360.5	4.13483E-001	1.92960E-003	0.00000E+000	4.14200E-001	-1.02688E-004	9	...........	-327.56
	2728	1364.5	4.05475E-001	1.69693E-003	0.00000E+000	4.06200E-001	-1.02588E-004	9	...........	-327.56
	2736	1368.5	3.97443E-001	1.55835E-003	0.00000E+000	3.98200E-001	-1.05288E-004	9	...........	-327.56
	2744	1372.5	3.89558E-001	1.37725E-003	0.00000E+000	3.90200E-001	-1.05621E-004	9	...........	-327.56
	2752	1376.5	3.81564E-001	9.20609E-004	0.00000E+000	3.82200E-001	-1.06355E-004	9	...........	-327.56
	2760	1380.5	3.73560E-001	8.82810E-004	0.00000E+000	3.74200E-001	-1.05221E-004	9	...........	-327.56
	2768	1384.5	3.65653E-001	6.87244E-004	0.00000E+000	3.66200E-001	-1.08221E-004	9	...........	-327.56
	2776	1388.5	3.57661E-001	4.31875E-004	0.00000E+000	3.58200E-001	-1.08921E-004	9	...........	-327.56
	2784	1392.5	3.49684E-001	2.04039E-004	0.00000E+000	3.50200E-001	-1.10388E-004	9	...........	-327.56
	2792	1396.5	3.41894E-001	-1.15213E-004	0.00000E+000	3.42200E-001	-1.03721E-004	8	...........	-327.56
	2800	1400.5	3.33809E-001	-3.86326E-004	0.00000E+000	3.34200E-001	-1.10588E-004	9	...........	-327.56
	2808	1404.5	3.25834E-001	-8.21928E-004	0.00000E+000	3.26200E-001	-1.10555E-004	9	...........	-327.56
	2816	1408.5	3.17913E-001	-1.13040E-003	0.00000E+000	3.18200E-001	-1.09221E-004	9	...........	-327.56
	2824	1412.5	3.09931E-001	-1.36060E-003	0.00000E+000	3.10200E-001	-1.06355E-004	9	...........	-327.56
	2832	1416.5	3.02001E-001	-1.81369E-003	0.00000E+000	3.02200E-001	-1.05255E-004	9	...........	-327.56
	2840	1420.5	2.94117E-001	-2.17952E-003	0.00000E+000	2.94200E-001	-9.58214E-005	9	...........	-327.56
	2848	1424.5	2.86182E-001	-2.63563E-003	0.00000E+000	2.86200E-001	-9.49548E-005	9	...........	-327.56
	2856	1428.5	2.77855E-001	-3.30535E-003	0.00000E+000	2.78200E-001	-1.11455E-004	10	...........	-327.56
	2864	1432.5	2.69809E-001	-3.53748E-003	0.00000E+000	2.70200E-001	-1.08621E-004	10	...........	-327.56
	2872	1436.5	2.61903E-001	-3.84125E-003	0.00000E+000	2.62200E-001	-1.06955E-004	10	...........	-327.56
	2880	1440.5	2.53886E-001	-4.07807E-003	0.00000E+000	2.54200E-001	-1.08755E-004	10	...........	-327.56
	2888	1444.5	2.45858E-001	-4.32603E-003	0.00000E+000	2.46200E-001	-1.09321E-004	10	...........	-327.56
	2896	1448.5	2.37946E-001	-4.62062E-003	0.00000E+000	2.38200E-001	-1.09021E-004	10	...........	-327.56
	2904	1452.5	2.29888E-001	-4.84009E-003	0.00000E+000	2.30200E-001	-1.10055E-004	10	...........	-327.56
	2912	1456.5	2.21880E-001	-4.84680E-003	0.00000E+000	2.22200E-001	-1.07321E-004	10	...........	-327.56
	2920	1460.5	2.13946E-001	-4.97754E-003	0.00000E+000	2.14200E-001	-1.07388E-004	10	...........	-327.56
	2928	1464.5	2.05940E-001	-5.01379E-003	0.00000E+000	2.06200E-001	-1.08688E-004	10	...........	-327.56
	2936	1468.5	1.97938E-001	-5.13560E-003	0.00000E+000	1.98200E-001	-1.12055E-004	10	...........	-327.56
	2944	1472.5	1.90000E-001	-5.28851E-003	0.00000E+000	1.90200E-001	-1.06088E-004	10	...........	-327.56
	2952	1476.5	1.81981E-001	-5.58318E-003	0.00000E+000	1.82200E-001	-1.09688E-004	10	...........	-327.56
[...]
	9255	4628	7.20188E-001	3.21170E-002	0.00000E+000	7.21000E-001	-1.08121E-004	11	...........	-327.56
	9260	4630.5	7.25203E-001	3.17857E-002	0.00000E+000	7.26000E-001	-1.06688E-004	11	...........	-327.56
	9265	4633	7.30095E-001	3.15250E-002	0.00000E+000	7.31000E-001	-1.10788E-004	11	...........	-327.56
	9270	4635.5	7.35118E-001	3.12575E-002	0.00000E+000	7.36000E-001	-1.05155E-004	11	...........	-327.56
	9275	4638	7.40150E-001	3.08437E-002	0.00000E+000	7.41000E-001	-1.10888E-004	11	...........	-327.56
	9280	4640.5	7.45153E-001	3.05060E-002	0.00000E+000	7.46000E-001	-1.07821E-004	11	...........	-327.56
	9285	4643	7.50180E-001	3.02023E-002	0.00000E+000	7.51000E-001	-1.09055E-004	11	...........	-327.56
	9290	4645.5	7.55159E-001	2.98960E-002	0.00000E+000	7.56000E-001	-1.04355E-004	11	...........	-327.56
	9295	4648	7.60112E-001	2.96695E-002	0.00000E+000	7.61000E-001	-1.11888E-004	11	...........	-327.56
	9300	4650.5	7.65118E-001	2.92594E-002	0.00000E+000	7.66000E-001	-1.11088E-004	11	...........	-327.56
	9305	4653	7.70160E-001	2.90219E-002	0.00000E+000	7.71000E-001	-1.09921E-004	11	...........	-327.56
	9310	4655.5	7.75171E-001	2.87943E-002	0.00000E+000	7.76000E-001	-1.07355E-004	11	...........	-327.56
	9315	4658	7.80157E-001	2.85239E-002	0.00000E+000	7.81000E-001	-1.15455E-004	11	...........	-327.56
	9320	4660.5	7.85095E-001	2.81902E-002	0.00000E+000	7.86000E-001	-1.12488E-004	11	...........	-327.56
	9325	4663	7.90108E-001	2.79825E-002	0.00000E+000	7.91000E-001	-1.11221E-004	11	...........	-327.56
	9330	4665.5	7.95139E-001	2.76734E-002	0.00000E+000	7.96000E-001	-1.11621E-004	11	...........	-327.56
	9335	4668	8.00165E-001	2.74282E-002	0.00000E+000	8.01000E-001	-1.05355E-004	11	...........	-327.56
	9340	4670.5	8.05140E-001	2.71483E-002	0.00000E+000	8.06000E-001	-1.06688E-004	11	...........	-327.56
	9345	4673	8.10071E-001	2.68422E-002	0.00000E+000	8.11000E-001	-1.10688E-004	11	...........	-327.56
	9350	4675.5	8.15089E-001	2.66745E-002	0.00000E+000	8.16000E-001	-1.10988E-004	11	...........	-327.56
	9355	4678	8.20077E-001	2.63461E-002	0.00000E+000	8.21000E-001	-1.13321E-004	11	...........	-327.56
	9360	4680.5	8.25086E-001	2.61361E-002	0.00000E+000	8.26000E-001	-1.07621E-004	11	...........	-327.56
	9365	4683	8.30076E-001	2.58698E-002	0.00000E+000	8.31000E-001	-1.08788E-004	11	...........	-327.56
	9370	4685.5	8.35090E-001	2.56460E-002	0.00000E+000	8.36000E-001	-1.11021E-004	11	...........	-327.56
	9375	4688	8.40052E-001	2.53941E-002	0.00000E+000	8.41000E-001	-1.11521E-004	11	...........	-327.56
	9380	4690.5	8.45055E-001	2.52038E-002	0.00000E+000	8.46000E-001	-1.12788E-004	11	...........	-327.56
	9385	4693	8.50077E-001	2.49138E-002	0.00000E+000	8.51000E-001	-1.12188E-004	11	...........	-327.56
	9390	4695.5	8.55086E-001	2.46940E-002	0.00000E+000	8.56000E-001	-1.05155E-004	11	...........	-327.56
	9395	4698	8.59991E-001	2.43809E-002	0.00000E+000	8.61000E-001	-1.11255E-004	11	...........	-327.56
	9400	4700.5	8.64741E-001	2.42090E-002	0.00000E+000	8.66000E-001	-1.04088E-004	10	...........	-327.56
	9405	4703	8.69787E-001	2.40263E-002	0.00000E+000	8.71000E-001	-1.07455E-004	10	...........	-327.56
	9410	4705.5	8.74789E-001	2.37759E-002	0.00000E+000	8.76000E-001	-1.04488E-004	10	...........	-327.56
	9415	4708	8.79808E-001	2.36124E-002	0.00000E+000	8.81000E-001	-1.03321E-004	10	...........	-327.56
	9420	4710.5	8.84742E-001	2.34038E-002	0.00000E+000	8.86000E-001	-1.11188E-004	10	...........	-327.56
	9425	4713	8.89766E-001	2.32025E-002	0.00000E+000	8.91000E-001	-1.08355E-004	10	...........	-327.56
	9430	4715.5	8.94745E-001	2.30122E-002	0.00000E+000	8.96000E-001	-1.05821E-004	10	...........	-327.56
	9435	4718	8.99809E-001	2.27621E-002	0.00000E+000	9.01000E-001	-1.04121E-004	10	...........	-327.56
	9440	4720.5	9.04799E-001	2.25055E-002	0.00000E+000	9.06000E-001	-1.04421E-004	10	...........	-327.56
	9445	4723	9.09694E-001	2.22932E-002	0.00000E+000	9.11000E-001	-1.05021E-004	10	...........	-327.56
	9450	4725.5	9.14733E-001	2.21316E-002	0.00000E+000	9.16000E-001	-1.04355E-004	10	...........	-327.56
	9455	4728	9.19767E-001	2.19700E-002	0.00000E+000	9.21000E-001	-1.06255E-004	10	...........	-327.56
	9460	4730.5	9.24750E-001	2.17882E-002	0.00000E+000	9.26000E-001	-1.08521E-004	10	...........	-327.56
	9465	4733	9.29762E-001	2.16003E-002	0.00000E+000	9.31000E-001	-1.09055E-004	10	...........	-327.56
	9470	4735.5	9.34658E-001	2.13836E-002	0.00000E+000	9.36000E-001	-1.05788E-004	10	...........	-327.56
	9475	4738	9.39696E-001	2.12687E-002	0.00000E+000	9.41000E-001	-1.07221E-004	10	...........	-327.56
	9480	4740.5	9.44686E-001	2.11786E-002	0.00000E+000	9.46000E-001	-1.07321E-004	10	...........	-327.56
	9485	4743	9.49742E-001	2.10972E-002	0.00000E+000	9.51000E-001	-1.10088E-004	10	...........	-327.56
	9490	4745.5	9.54748E-001	2.10262E-002	0.00000E+000	9.56000E-001	-1.09888E-004	10	...........	-327.56
	9495	4748	9.59754E-001	2.09966E-002	0.00000E+000	9.61000E-001	-1.04288E-004	10	...........	-327.56
	9500	4750.5	9.64725E-001	2.09365E-002	0.00000E+000	9.66000E-001	-1.11688E-004	10	...........	-327.56
	9505	4753	9.69684E-001	2.09723E-002	0.00000E+000	9.71000E-001	-1.08355E-004	10	...........	-327.56
	9510	4755.5	9.74710E-001	2.10170E-002	0.00000E+000	9.76000E-001	-1.08221E-004	10	...........	-327.56
	9515	4758	9.79730E-001	2.11655E-002	0.00000E+000	9.81000E-001	-1.05488E-004	10	...........	-327.56
	9520	4760.5	9.84715E-001	2.13257E-002	0.00000E+000	9.86000E-001	-1.01621E-004	10	...........	-327.56
	9525	4763	9.89649E-001	2.15954E-002	0.00000E+000	9.91000E-001	-1.06688E-004	10	...........	-327.56
	9530	4765.5	9.94656E-001	2.18821E-002	0.00000E+000	9.96000E-001	-1.05221E-004	10	...........	-327.56
	9535	4768	9.99667E-001	2.22454E-002	0.00000E+000	1.00100E+000	-1.08621E-004	10	...........	-327.56
	9540	4770.5	1.00471E+000	2.27084E-002	0.00000E+000	1.00600E+000	-1.07055E-004	10	...........	-327.56
	9545	4773	1.00970E+000	2.32405E-002	0.00000E+000	1.01100E+000	-1.08655E-004	10	...........	-327.56
	9550	4775.5	1.01460E+000	2.38855E-002	0.00000E+000	1.01600E+000	-1.05555E-004	10	...........	-327.56
	9555	4778	1.01960E+000	2.45259E-002	0.00000E+000	1.02100E+000	-1.07488E-004	10	...........	-327.56
	9560	4780.5	1.02459E+000	2.53832E-002	0.00000E+000	1.02600E+000	-1.03921E-004	10	...........	-327.56
	9565	4783	1.02960E+000	2.63009E-002	0.00000E+000	1.03100E+000	-1.05121E-004	10	...........	-327.56
	9570	4785.5	1.03491E+000	2.73762E-002	0.00000E+000	1.03600E+000	-1.08088E-004	11	...........	-327.56
	9575	4788	1.03988E+000	2.84816E-002	0.00000E+000	1.04100E+000	-1.11588E-004	11	...........	-327.56
	9580	4790.5	1.04484E+000	2.97145E-002	0.00000E+000	1.04600E+000	-1.09421E-004	11	...........	-327.56
	9585	4793	1.04985E+000	3.10168E-002	0.00000E+000	1.05100E+000	-1.06821E-004	11	...........	-327.56
	9590	4795.5	1.05489E+000	3.24281E-002	0.00000E+000	1.05600E+000	-1.09788E-004	11	...........	-327.56
	9595	4798	1.05990E+000	3.39849E-002	0.00000E+000	1.06100E+000	-1.06855E-004	11	...........	-327.56
	9600	4800.5	1.06480E+000	3.55964E-002	0.00000E+000	1.06600E+000	-1.10121E-004	11	...........	-327.56
	9605	4803	1.06982E+000	3.73215E-002	0.00000E+000	1.07100E+000	-1.09655E-004	11	...........	-327.56
	9610	4805.5	1.07483E+000	3.91476E-002	0.00000E+000	1.07600E+000	-1.09921E-004	11	...........	-327.56
	9615	4808	1.07988E+000	4.10560E-002	0.00000E+000	1.08100E+000	-1.08055E-004	11	...........	-327.56
	9620	4810.5	1.08485E+000	4.30376E-002	0.00000E+000	1.08600E+000	-1.11788E-004	11	...........	-327.56
	9625	4813	1.08977E+000	4.51472E-002	0.00000E+000	1.09100E+000	-1.09288E-004	11	...........	-327.56
	9630	4815.5	1.09477E+000	4.73522E-002	0.00000E+000	1.09600E+000	-1.07188E-004	11	...........	-327.56
	9635	4818	1.09978E+000	4.95860E-002	0.00000E+000	1.10100E+000	-1.09655E-004	11	...........	-327.56
	9640	4820.5	1.10480E+000	5.19303E-002	0.00000E+000	1.10600E+000	-1.07621E-004	11	...........	-327.56
	9645	4823	1.10982E+000	5.43609E-002	0.00000E+000	1.11100E+000	-1.13288E-004	11	...........	-327.56
	9650	4825.5	1.11472E+000	5.69050E-002	0.00000E+000	1.11600E+000	-1.14221E-004	11	...........	-327.56
	9655	4828	1.11980E+000	5.94594E-002	0.00000E+000	1.12100E+000	-1.11288E-004	11	...........	-327.56
	9660	4830.5	1.12476E+000	6.22077E-002	0.00000E+000	1.12600E+000	-1.11921E-004	11	...........	-327.56
	9665	4833	1.12973E+000	6.49532E-002	0.00000E+000	1.13100E+000	-1.10288E-004	11	...........	-327.56
	9670	4835.5	1.13474E+000	6.78965E-002	0.00000E+000	1.13600E+000	-1.11255E-004	11	...........	-327.56
	9675	4838	1.13963E+000	7.08799E-002	0.00000E+000	1.14100E+000	-1.04455E-004	11	...........	-327.56
	9680	4840.5	1.14465E+000	7.38920E-002	0.00000E+000	1.14600E+000	-1.10088E-004	11	...........	-327.56
	9685	4843	1.14967E+000	7.71178E-002	0.00000E+000	1.15100E+000	-1.10521E-004	11	...........	-327.56
	9690	4845.5	1.15469E+000	8.02878E-002	0.00000E+000	1.15600E+000	-1.08021E-004	11	...........	-327.56
	9695	4848	1.15969E+000	8.33779E-002	0.00000E+000	1.16100E+000	-1.10388E-004	11	...........	-327.56
	9700	4850.5	1.16469E+000	8.66345E-002	0.00000E+000	1.16600E+000	-1.09988E-004	11	...........	-327.56
	9705	4853	1.16959E+000	8.99840E-002	0.00000E+000	1.17100E+000	-1.12155E-004	11	...........	-327.56
	9710	4855.5	1.17463E+000	9.34361E-002	0.00000E+000	1.17600E+000	-1.10955E-004	11	...........	-327.56
	9715	4858	1.17964E+000	9.70142E-002	0.00000E+000	1.18100E+000	-1.14688E-004	11	...........	-327.56
	9720	4860.5	1.18465E+000	1.00631E-001	0.00000E+000	1.18600E+000	-1.05721E-004	11	...........	-327.56
	9725	4863	1.18962E+000	1.04388E-001	0.00000E+000	1.19100E+000	-1.16121E-004	11	...........	-327.56
	9730	4865.5	1.19458E+000	1.08390E-001	0.00000E+000	1.19600E+000	-1.15155E-004	11	...........	-327.56
	9735	4868	1.19957E+000	1.12510E-001	0.00000E+000	1.20100E+000	-1.10321E-004	11	...........	-327.56
	9740	4870.5	1.20462E+000	1.16947E-001	0.00000E+000	1.20600E+000	-1.12755E-004	11	...........	-327.56
	9745	4873	1.20959E+000	1.21633E-001	0.00000E+000	1.21100E+000	-1.11455E-004	11	...........	-327.56
	9750	4875.5	1.21462E+000	1.26272E-001	0.00000E+000	1.21600E+000	-1.08921E-004	11	...........	-327.56
	9755	4878	1.21950E+000	1.31329E-001	0.00000E+000	1.22100E+000	-1.09055E-004	11	...........	-327.56
	9760	4880.5	1.22452E+000	1.36595E-001	0.00000E+000	1.22600E+000	-1.07988E-004	11	...........	-327.56
	9765	4883	1.22954E+000	1.42164E-001	0.00000E+000	1.23100E+000	-1.07188E-004	11	...........	-327.56
	9770	4885.5	1.23455E+000	1.48064E-001	0.00000E+000	1.23600E+000	-1.09821E-004	11	...........	-327.56
	9775	4888	1.23952E+000	1.54342E-001	0.00000E+000	1.24100E+000	-1.10021E-004	11	...........	-327.56
	9780	4890.5	1.24444E+000	1.61114E-001	0.00000E+000	1.24600E+000	-1.06221E-004	11	...........	-327.56
	9785	4893	1.24950E+000	1.68235E-001	0.00000E+000	1.25100E+000	-1.12288E-004	11	...........	-327.56
	9790	4895.5	1.25447E+000	1.75871E-001	0.00000E+000	1.25600E+000	-1.09421E-004	11	...........	-327.56
	9795	4898	1.25948E+000	1.83941E-001	0.00000E+000	1.26100E+000	-1.08188E-004	11	...........	-327.56
	9800	4900.5	1.26447E+000	1.92531E-001	0.00000E+000	1.26600E+000	-1.04821E-004	11	...........	-327.56
	9805	4903	1.26937E+000	2.01020E-001	0.00000E+000	1.27100E+000	-1.10521E-004	11	...........	-327.56
	9810	4905.5	1.27436E+000	2.10013E-001	0.00000E+000	1.27600E+000	-1.06255E-004	11	...........	-327.56
	9815	4908	1.27938E+000	2.19271E-001	0.00000E+000	1.28100E+000	-1.06921E-004	11	...........	-327.56
	9820	4910.5	1.28436E+000	2.29024E-001	0.00000E+000	1.28600E+000	-1.07988E-004	11	...........	-327.56
	9825	4913	1.28937E+000	2.39658E-001	0.00000E+000	1.29100E+000	-1.07821E-004	11	...........	-327.56
	9830	4915.5	1.29433E+000	2.50630E-001	0.00000E+000	1.29600E+000	-1.10321E-004	11	...........	-327.56
	9835	4918	1.29926E+000	2.61338E-001	0.00000E+000	1.30100E+000	-1.06455E-004	11	...........	-327.56
	9840	4920.5	1.30454E+000	2.73278E-001	0.00000E+000	1.30600E+000	-1.13621E-004	12	...........	-327.56
	9845	4923	1.30956E+000	2.84427E-001	0.00000E+000	1.31100E+000	-1.10788E-004	12	...........	-327.56
	9850	4925.5	1.31457E+000	2.96006E-001	0.00000E+000	1.31600E+000	-1.09288E-004	12	...........	-327.56
	9855	4928	1.31945E+000	3.07490E-001	0.00000E+000	1.32100E+000	-1.13788E-004	12	...........	-327.56
	9860	4930.5	1.32449E+000	3.19262E-001	0.00000E+000	1.32600E+000	-1.09155E-004	12	...........	-327.56
	9865	4933	1.32953E+000	3.30914E-001	0.00000E+000	1.33100E+000	-1.09121E-004	12	...........	-327.56
	9870	4935.5	1.33445E+000	3.43765E-001	0.00000E+000	1.33600E+000	-1.06688E-004	12	...........	-327.56
	9875	4938	1.33948E+000	3.56055E-001	0.00000E+000	1.34100E+000	-1.10355E-004	12	...........	-327.56
	9880	4940.5	1.34436E+000	3.68948E-001	0.00000E+000	1.34600E+000	-1.07788E-004	12	...........	-327.56
	9885	4943	1.34938E+000	3.82528E-001	0.00000E+000	1.35100E+000	-1.11821E-004	12	...........	-327.56
	9890	4945.5	1.35437E+000	3.94272E-001	0.00000E+000	1.35600E+000	-1.06921E-004	12	...........	-327.56
	9895	4948	1.35940E+000	4.07775E-001	0.00000E+000	1.36100E+000	-1.12788E-004	12	...........	-327.56
	9900	4950.5	1.36441E+000	4.21245E-001	0.00000E+000	1.36600E+000	-1.09588E-004	12	...........	-327.56
	9905	4953	1.36942E+000	4.33898E-001	0.00000E+000	1.37100E+000	-1.11088E-004	12	...........	-327.56
	9910	4955.5	1.37434E+000	4.48807E-001	0.00000E+000	1.37600E+000	-1.09955E-004	12	...........	-327.56
	9915	4958	1.37935E+000	4.61644E-001	0.00000E+000	1.38100E+000	-1.07421E-004	12	...........	-327.56
	9920	4960.5	1.38434E+000	4.74223E-001	0.00000E+000	1.38600E+000	-1.05021E-004	12	...........	-327.56
	9925	4963	1.38934E+000	4.87498E-001	0.00000E+000	1.39100E+000	-1.09355E-004	12	...........	-327.56
	9930	4965.5	1.39432E+000	5.00689E-001	0.00000E+000	1.39600E+000	-1.13888E-004	12	...........	-327.56
	9935	4968	1.39926E+000	5.15056E-001	0.00000E+000	1.40100E+000	-1.10388E-004	12	...........	-327.56
	9940	4970.5	1.40426E+000	5.28208E-001	0.00000E+000	1.40600E+000	-1.10288E-004	12	...........	-327.56
	9945	4973	1.40928E+000	5.42492E-001	0.00000E+000	1.41100E+000	-1.12955E-004	12	...........	-327.56
	9950	4975.5	1.41431E+000	5.55753E-001	0.00000E+000	1.41600E+000	-1.07355E-004	12	...........	-327.56
	9955	4978	1.41928E+000	5.69709E-001	0.00000E+000	1.42100E+000	-1.09721E-004	12	...........	-327.56
	9960	4980.5	1.42421E+000	5.82451E-001	0.00000E+000	1.42600E+000	-1.10088E-004	12	...........	-327.56
	9965	4983	1.42918E+000	5.95267E-001	0.00000E+000	1.43100E+000	-1.09121E-004	12	...........	-327.56
	9970	4985.5	1.43420E+000	6.08592E-001	0.00000E+000	1.43600E+000	-1.08455E-004	12	...........	-327.56
	9975	4988	1.43919E+000	6.23323E-001	0.00000E+000	1.44100E+000	-1.10188E-004	12	...........	-327.56
	9980	4990.5	1.44420E+000	6.35943E-001	0.00000E+000	1.44600E+000	-1.13821E-004	12	...........	-327.56
	9985	4993	1.44910E+000	6.50766E-001	0.00000E+000	1.45100E+000	-1.13288E-004	12	...........	-327.56
	9990	4995.5	1.45412E+000	6.60470E-001	0.00000E+000	1.45600E+000	-1.13755E-004	12	...........	-327.56
	9995	4998	1.45914E+000	6.76654E-001	0.00000E+000	1.46100E+000	-1.11288E-004	12	...........	-327.56
	10000	5000.5	1.46416E+000	6.90804E-001	0.00000E+000	1.46600E+000	-1.14055E-004	12	...........	-327.56
	10005	5003	1.46915E+000	7.02156E-001	0.00000E+000	1.47100E+000	-1.07688E-004	12	...........	-327.56
	10010	5005.5	1.47404E+000	7.17771E-001	0.00000E+000	1.47600E+000	-1.12321E-004	12	...........	-327.56
	10015	5008	1.47905E+000	7.29546E-001	0.00000E+000	1.48100E+000	-1.13021E-004	12	...........	-327.56
	10020	5010.5	1.48404E+000	7.45000E-001	0.00000E+000	1.48600E+000	-1.09721E-004	12	...........	-327.56
	10025	5013	1.48907E+000	7.58436E-001	0.00000E+000	1.49100E+000	-1.09555E-004	12	...........	-327.56
	10030	5015.5	1.49408E+000	7.69018E-001	0.00000E+000	1.49600E+000	-1.10421E-004	12	...........	-327.56
	10035	5018	1.49907E+000	7.79518E-001	0.00000E+000	1.50100E+000	-1.10521E-004	12	...........	-327.56
	10040	5020.5	1.50399E+000	7.88061E-001	0.00000E+000	1.50600E+000	-1.11221E-004	12	...........	-327.56
	10045	5023	1.50902E+000	8.02083E-001	0.00000E+000	1.51100E+000	-1.09055E-004	12	...........	-327.56
	10050	5025.5	1.51402E+000	8.16750E-001	0.00000E+000	1.51600E+000	-1.05521E-004	12	...........	-327.56
	10055	5028	1.51902E+000	8.29444E-001	0.00000E+000	1.52100E+000	-1.10688E-004	12	...........	-327.56
	10060	5030.5	1.52391E+000	8.43095E-001	0.00000E+000	1.52600E+000	-1.11888E-004	12	...........	-327.56
	10065	5033	1.52896E+000	8.53578E-001	0.00000E+000	1.53100E+000	-1.10421E-004	12	...........	-327.56
	10070	5035.5	1.53395E+000	8.65476E-001	0.00000E+000	1.53600E+000	-1.11055E-004	12	...........	-327.56
	10075	5038	1.53893E+000	8.73704E-001	0.00000E+000	1.54100E+000	-1.08455E-004	12	...........	-327.56
	10080	5040.5	1.54394E+000	8.86761E-001	0.00000E+000	1.54600E+000	-1.13788E-004	12	...........	-327.56
	10085	5043	1.54891E+000	8.97329E-001	0.00000E+000	1.55100E+000	-1.06688E-004	12	...........	-327.56
	10090	5045.5	1.55386E+000	9.10994E-001	0.00000E+000	1.55600E+000	-1.13988E-004	12	...........	-327.56
	10095	5048	1.55882E+000	9.25926E-001	0.00000E+000	1.56100E+000	-1.10755E-004	12	...........	-327.56
	10100	5050.5	1.56388E+000	9.32227E-001	0.00000E+000	1.56600E+000	-1.05821E-004	12	...........	-327.56
	10105	5053	1.56888E+000	9.42467E-001	0.00000E+000	1.57100E+000	-1.14188E-004	12	...........	-327.56
	10110	5055.5	1.57386E+000	9.54166E-001	0.00000E+000	1.57600E+000	-1.11721E-004	12	...........	-327.56
	10115	5058	1.57880E+000	9.66151E-001	0.00000E+000	1.58100E+000	-1.12788E-004	12	...........	-327.56
	10120	5060.5	1.58386E+000	9.78316E-001	0.00000E+000	1.58600E+000	-1.08255E-004	12	...........	-327.56
	10125	5063	1.58881E+000	9.90312E-001	0.00000E+000	1.59100E+000	-1.13621E-004	12	...........	-327.56
	10130	5065.5	1.59384E+000	1.00132E+000	0.00000E+000	1.59600E+000	-1.09088E-004	12	...........	-327.56
	10135	5068	1.59885E+000	1.01411E+000	0.00000E+000	1.60100E+000	-1.08521E-004	12	...........	-327.56
	10140	5070.5	1.60376E+000	1.02363E+000	0.00000E+000	1.60600E+000	-1.09588E-004	12	...........	-327.56
	10145	5073	1.60875E+000	1.03549E+000	0.00000E+000	1.61100E+000	-1.09488E-004	12	...........	-327.56
	10150	5075.5	1.61378E+000	1.03733E+000	0.00000E+000	1.61600E+000	-1.10155E-004	12	...........	-327.56
	10155	5078	1.61877E+000	1.05217E+000	0.00000E+000	1.62100E+000	-1.07921E-004	12	...........	-327.56
	10160	5080.5	1.62380E+000	1.06186E+000	0.00000E+000	1.62600E+000	-1.08955E-004	12	...........	-327.56
	10165	5083	1.62874E+000	1.07675E+000	0.00000E+000	1.63100E+000	-1.08221E-004	12	...........	-327.56
	10170	5085.5	1.63373E+000	1.08175E+000	0.00000E+000	1.63600E+000	-1.12521E-004	12	...........	-327.56
	10175	5088	1.63872E+000	1.09082E+000	0.00000E+000	1.64100E+000	-1.10521E-004	12	...........	-327.56
	10180	5090.5	1.64372E+000	1.10356E+000	0.00000E+000	1.64600E+000	-1.10721E-004	12	...........	-327.56
	10185	5093	1.64872E+000	1.11056E+000	0.00000E+000	1.65100E+000	-1.09921E-004	12	...........	-327.56
	10190	5095.5	1.65363E+000	1.11841E+000	0.00000E+000	1.65600E+000	-1.08621E-004	12	...........	-327.56
	10195	5098	1.65864E+000	1.13437E+000	0.00000E+000	1.66100E+000	-1.12988E-004	12	...........	-327.56
	10200	5100.5	1.66364E+000	1.14739E+000	0.00000E+000	1.66600E+000	-1.05888E-004	12	...........	-327.56
	10205	5103	1.66869E+000	1.15391E+000	0.00000E+000	1.67100E+000	-1.06355E-004	12	...........	-327.56
	10210	5105.5	1.67368E+000	1.16341E+000	0.00000E+000	1.67600E+000	-1.11355E-004	12	...........	-327.56
	10215	5108	1.67859E+000	1.17432E+000	0.00000E+000	1.68100E+000	-1.10655E-004	12	...........	-327.56
	10220	5110.5	1.68361E+000	1.17806E+000	0.00000E+000	1.68600E+000	-1.06555E-004	12	...........	-327.56
	10225	5113	1.68862E+000	1.19764E+000	0.00000E+000	1.69100E+000	-1.08355E-004	12	...........	-327.56
	10230	5115.5	1.69362E+000	1.20722E+000	0.00000E+000	1.69600E+000	-1.07421E-004	12	...........	-327.56
	10234	5117.5	1.69763E+000	1.20990E+000	0.00000E+000	1.70000E+000	-1.09255E-004	12	...........	-327.56