File: testing/data/240902_24_MCL13_cspWE_CV2_750C_CO2.DTA
EXPLAIN
TAG	CV
TITLE	LABEL	Cyclic Voltammetry	Test Identifier
DATE	LABEL	9/4/2024	Date
TIME	LABEL	4:49:14	Time
NOTES	NOTES	5	Notes...
	cswWE - carbon steel wire
cspWE - carbon steel plate 2x2 tapered

Carbon steel plate counter electrode
Carbon steel wire reference electrode
PSTAT	PSTAT	REF3000-48128	Potentiostat
VINIT	POTEN	0.00000E+000	T	Initial E (V)
VLIMIT1	POTEN	1.70000E+000	F	Scan Limit 1 (V)
VLIMIT2	POTEN	-1.00000E+000	F	Scan Limit 2 (V)
VFINAL	POTEN	1.70000E+000	F	Final E (V)
SCANRATE	QUANT	9.99998E-001	Scan Rate (mV/s)
STEPSIZE	QUANT	1.00000E+000	Step Size (mV)
CYCLES	IQUANT	6	Cycles (#)
IMODE	SELECTOR	0	I/E Range Mode
IRANGE	QUANT	3.00000E-001	Max Current (mA)
AREA	QUANT	1.00000E+000	Sample Area (cm^2)
EQDELAY	QUANT	0.00000E+000	Equil. Time (s)
IRCOMP	SELECTOR	0	IRComp
PFCOR	QUANT	5.00000E+001	PF Corr. (ohm)
SAMPLINGMODE	SELECTOR	1	Sampling Mode
EOC	QUANT	0.4850335	Open Circuit (V)
ELECTRODETYPE	SELECTOR	0	Electrode Type
STRIPPING	TOGGLE	F	Used for Stripping
SEQUENCER	TOGGLE	TRUE	Run as Sequence
PSTATMODEL	IQUANT	5	Pstat Model
PSTATSECTION	LABEL	REF3000-48128	Pstat Section
PSTATSERIALNO	LABEL	48128	Pstat Serial Number
CTRLMODE	IQUANT	1	Control Mode
ELECTROMETER	IQUANT	0	RE=0 or CS=1
IESTAB	IQUANT	2	I/E Stability
CASPEED	IQUANT	4	Control Amp Speed
CONVENTION	IQUANT	1	Current Convention
ICHRANGE	IQUANT	2	Ich Range
ICHRANGEMODE	TOGGLE	F	Ich Auto Range
ICHOFFSETENABLE	TOGGLE	F	Ich Offset Enable
ICHOFFSET	QUANT	0	Ich Offset (V)
ICHFILTER	IQUANT	3	Ich Filter
VCHRANGE	IQUANT	2	Vch Range
VCHRANGEMODE	TOGGLE	F	Vch Auto Range
VCHOFFSETENABLE	TOGGLE	F	Vch Offset Enable
VCHOFFSET	QUANT	0	Vch Offset (V)
VCHFILTER	IQUANT	3	Vch Filter
ACHRANGE	IQUANT	2	Ach Range
ACHOFFSETENABLE	TOGGLE	F	Ach Offset Enable
ACHOFFSET	QUANT	0	Ach Offset (V)
ACHFILTER	IQUANT	1	Ach Filter
IERANGELOWERLIMIT	IQUANT	2	I/E Range Lower Limit
IERANGEMODE	TOGGLE	T	I/E AutoRange
IERANGE	IQUANT	9	I/E Range
POSFEEDENABLE	TOGGLE	F	Positive Feedback IR Comp
POSFEEDRESISTANCE	QUANT	0	Positive Feedback Resistance (ohm)
ACHSELECT	IQUANT	4	Ach Select
SENSECABLEID	IQUANT	14	Sense Cable ID
PWRCABLEID	IQUANT	7	Power Cable ID
DCCALDATE	LABEL	8/16/2024	DC Calibration Date
ACCALDATE	LABEL	8/16/2024	AC Calibration Date
THERMOSELECT	IQUANT	1	Thermo Select
FRAMEWORKVERSION	LABEL	7.10.3	Framework Version
INSTRUMENTVERSION	LABEL	4.91	Instrument Version
COMMVERSION	LABEL	5.10	Communications Version
CPUPLDVERSION	LABEL	6.00	CPU PLD Version
CTRLPLDVERSION	LABEL	3.21	CTRL PLD Version
PSTATPLDVERSION	LABEL	0.00	PSTAT PLD Version
COMPLIANCEVOLTAGE	IQUANT	0	Compliance Voltage
EXPERIMENTABORTED	TOGGLE	T	Experiment Aborted
CURVE	TABLE	13937
	Pt	T	Vf	Im	Vu	Sig	Ach	IERange	Over	Cycle	Temp
	#	s	V vs. Ref.	A	V	V	V	#	bits	#	deg C
	0	1	4.84107E-001	3.29009E-003	0.00000E+000	4.85050E-001	-9.59714E-005	9	....ih..i..	0	-327.56
	29	30	5.13333E-001	9.41323E-002	0.00000E+000	5.14050E-001	-1.25371E-004	11	...........	0	-327.56
	58	59	5.42252E-001	1.53113E-001	0.00000E+000	5.43050E-001	-1.24321E-004	11	...........	0	-327.56
	87	88	5.71123E-001	2.03357E-001	0.00000E+000	5.72050E-001	-1.25171E-004	11	...........	0	-327.56
	116	117	6.00045E-001	2.39913E-001	0.00000E+000	6.01050E-001	-1.20821E-004	11	...........	0	-327.56
	145	146	6.29166E-001	2.71322E-001	0.00000E+000	6.30050E-001	-1.23738E-004	12	...........	0	-327.56
	174	175	6.58165E-001	2.95266E-001	0.00000E+000	6.59050E-001	-1.26238E-004	12	...........	0	-327.56
	203	204	6.87131E-001	3.18567E-001	0.00000E+000	6.88050E-001	-1.20788E-004	12	...........	0	-327.56
	232	233	7.16121E-001	3.30421E-001	0.00000E+000	7.17050E-001	-1.26121E-004	12	...........	0	-327.56
	261	262	7.45078E-001	3.38173E-001	0.00000E+000	7.46050E-001	-1.23471E-004	12	...........	0	-327.56
	290	291	7.74071E-001	3.42224E-001	0.00000E+000	7.75050E-001	-1.24271E-004	12	...........	0	-327.56
	319	320	8.03077E-001	3.41257E-001	0.00000E+000	8.04050E-001	-1.25771E-004	12	...........	0	-327.56
	348	349	8.31996E-001	3.35506E-001	0.00000E+000	8.33050E-001	-1.28755E-004	12	...........	0	-327.56
	377	378	8.60930E-001	3.26815E-001	0.00000E+000	8.62050E-001	-1.24938E-004	12	...........	0	-327.56
	406	407	8.89926E-001	3.17624E-001	0.00000E+000	8.91050E-001	-1.22505E-004	12	...........	0	-327.56
	435	436	9.18925E-001	3.08715E-001	0.00000E+000	9.20050E-001	-1.25855E-004	12	...........	0	-327.56
	464	465	9.47880E-001	3.01400E-001	0.00000E+000	9.49050E-001	-1.23321E-004	12	...........	0	-327.56
	493	494	9.76878E-001	3.00598E-001	0.00000E+000	9.78050E-001	-1.26305E-004	12	...........	0	-327.56
	522	523	1.00588E+000	2.99918E-001	0.00000E+000	1.00705E+000	-1.28521E-004	12	...........	0	-327.56
	551	552	1.03485E+000	3.06066E-001	0.00000E+000	1.03605E+000	-1.27988E-004	12	...........	0	-327.56
	580	581	1.06381E+000	3.16959E-001	0.00000E+000	1.06505E+000	-1.29505E-004	12	...........	0	-327.56
	609	610	1.09275E+000	3.40047E-001	0.00000E+000	1.09405E+000	-1.27721E-004	12	...........	0	-327.56
	638	639	1.12170E+000	3.77974E-001	0.00000E+000	1.12305E+000	-1.29005E-004	12	...........	0	-327.56
	667	668	1.15062E+000	4.21332E-001	0.00000E+000	1.15205E+000	-1.27205E-004	12	...........	0	-327.56
	696	697	1.17957E+000	4.72775E-001	0.00000E+000	1.18105E+000	-1.27555E-004	12	...........	0	-327.56
	725	726	1.20856E+000	5.22022E-001	0.00000E+000	1.21005E+000	-1.27505E-004	12	...........	0	-327.56
	754	755	1.23751E+000	5.71677E-001	0.00000E+000	1.23905E+000	-1.27821E-004	12	...........	0	-327.56
	783	784	1.26646E+000	6.07100E-001	0.00000E+000	1.26805E+000	-1.30138E-004	12	...........	0	-327.56
	812	813	1.29535E+000	6.43632E-001	0.00000E+000	1.29705E+000	-1.31521E-004	12	...........	0	-327.56
	841	842	1.32432E+000	7.07870E-001	0.00000E+000	1.32605E+000	-1.27588E-004	12	...........	0	-327.56
	870	871	1.35319E+000	7.98721E-001	0.00000E+000	1.35505E+000	-1.27188E-004	12	...........	0	-327.56
	899	900	1.38212E+000	9.21319E-001	0.00000E+000	1.38405E+000	-1.27088E-004	12	...........	0	-327.56
	928	929	1.41111E+000	1.02869E+000	0.00000E+000	1.41305E+000	-1.27655E-004	12	...........	0	-327.56
	957	958	1.43998E+000	1.11552E+000	0.00000E+000	1.44205E+000	-1.28955E-004	12	...........	0	-327.56
	986	987	1.46896E+000	1.18414E+000	0.00000E+000	1.47105E+000	-1.27521E-004	12	...........	0	-327.56
	1015	1016	1.49779E+000	1.30177E+000	0.00000E+000	1.50005E+000	-1.28905E-004	12	...........	0	-327.56
	1044	1045	1.52675E+000	1.43569E+000	0.00000E+000	1.52905E+000	-1.24755E-004	12	...........	0	-327.56
	1073	1074	1.55564E+000	1.53813E+000	0.00000E+000	1.55805E+000	-1.24388E-004	12	...........	0	-327.56
	1102	1103	1.58462E+000	1.61753E+000	0.00000E+000	1.58705E+000	-1.24438E-004	12	...........	0	-327.56
	1131	1132	1.61357E+000	1.71216E+000	0.00000E+000	1.61605E+000	-1.21238E-004	12	...........	0	-327.56
	1160	1161	1.64255E+000	1.78211E+000	0.00000E+000	1.64505E+000	-1.28005E-004	12	...........	0	-327.56
	1189	1190	1.67152E+000	1.84963E+000	0.00000E+000	1.67405E+000	-1.27238E-004	12	...........	0	-327.56
	1218	1219	1.69451E+000	1.92831E+000	0.00000E+000	1.69705E+000	-1.29438E-004	12	...........	0	-327.56
	1247	1248	1.66553E+000	1.84572E+000	0.00000E+000	1.66805E+000	-1.28388E-004	12	...........	0	-327.56
	1276	1277	1.63657E+000	1.77043E+000	0.00000E+000	1.63905E+000	-1.26538E-004	12	...........	0	-327.56
	1305	1306	1.60756E+000	1.67243E+000	0.00000E+000	1.61005E+000	-1.26121E-004	12	...........	0	-327.56
	1334	1335	1.57860E+000	1.59890E+000	0.00000E+000	1.58105E+000	-1.27171E-004	12	...........	0	-327.56
	1363	1364	1.54959E+000	1.52030E+000	0.00000E+000	1.55205E+000	-1.30055E-004	12	...........	0	-327.56
	1392	1393	1.52079E+000	1.43291E+000	0.00000E+000	1.52305E+000	-1.25238E-004	12	...........	0	-327.56
	1421	1422	1.49184E+000	1.35588E+000	0.00000E+000	1.49405E+000	-1.22105E-004	12	...........	0	-327.56
	1450	1451	1.46287E+000	1.28617E+000	0.00000E+000	1.46505E+000	-1.22771E-004	12	...........	0	-327.56
	1479	1480	1.43391E+000	1.20940E+000	0.00000E+000	1.43605E+000	-1.27138E-004	12	...........	0	-327.56
	1508	1509	1.40497E+000	1.14264E+000	0.00000E+000	1.40705E+000	-1.22455E-004	12	...........	0	-327.56
	1537	1538	1.37599E+000	1.06595E+000	0.00000E+000	1.37805E+000	-1.20971E-004	12	...........	0	-327.56
	1566	1567	1.34713E+000	9.72199E-001	0.00000E+000	1.34905E+000	-1.22838E-004	12	...........	0	-327.56
	1595	1596	1.31825E+000	8.97135E-001	0.00000E+000	1.32005E+000	-1.20638E-004	12	...........	0	-327.56
	1624	1625	1.28931E+000	8.10288E-001	0.00000E+000	1.29105E+000	-1.21538E-004	12	...........	0	-327.56
	1653	1654	1.26038E+000	7.27817E-001	0.00000E+000	1.26205E+000	-1.19238E-004	12	...........	0	-327.56
	1682	1683	1.23143E+000	6.59887E-001	0.00000E+000	1.23305E+000	-1.22488E-004	12	...........	0	-327.56
	1711	1712	1.20244E+000	5.83471E-001	0.00000E+000	1.20405E+000	-1.24438E-004	12	...........	0	-327.56
	1740	1741	1.17352E+000	5.06523E-001	0.00000E+000	1.17505E+000	-1.19055E-004	12	...........	0	-327.56
	1769	1770	1.14459E+000	4.32566E-001	0.00000E+000	1.14605E+000	-1.20021E-004	12	...........	0	-327.56
	1798	1799	1.11565E+000	3.60635E-001	0.00000E+000	1.11705E+000	-1.21071E-004	12	...........	0	-327.56
	1827	1828	1.08682E+000	3.02747E-001	0.00000E+000	1.08805E+000	-1.20771E-004	12	...........	0	-327.56
	1856	1857	1.05787E+000	2.51075E-001	0.00000E+000	1.05905E+000	-1.22438E-004	12	...........	0	-327.56
	1885	1886	1.02870E+000	2.08093E-001	0.00000E+000	1.03005E+000	-1.19521E-004	11	...........	0	-327.56
	1914	1915	9.99750E-001	1.76827E-001	0.00000E+000	1.00105E+000	-1.18838E-004	11	...........	0	-327.56
	1943	1944	9.70760E-001	1.59458E-001	0.00000E+000	9.72050E-001	-1.19021E-004	11	...........	0	-327.56
	1972	1973	9.41800E-001	1.47798E-001	0.00000E+000	9.43050E-001	-1.23205E-004	11	...........	0	-327.56
	2001	2002	9.12864E-001	1.39935E-001	0.00000E+000	9.14050E-001	-1.23521E-004	11	...........	0	-327.56
	2030	2031	8.83847E-001	1.36801E-001	0.00000E+000	8.85050E-001	-1.19221E-004	11	...........	0	-327.56
	2059	2060	8.54992E-001	1.31711E-001	0.00000E+000	8.56050E-001	-1.18421E-004	11	...........	0	-327.56
	2088	2089	8.25996E-001	1.26685E-001	0.00000E+000	8.27050E-001	-1.20355E-004	11	...........	0	-327.56
	2117	2118	7.97060E-001	1.24406E-001	0.00000E+000	7.98050E-001	-1.21471E-004	11	...........	0	-327.56
	2146	2147	7.68014E-001	1.36330E-001	0.00000E+000	7.69050E-001	-1.25888E-004	11	...........	0	-327.56
	2175	2176	7.39102E-001	1.20249E-001	0.00000E+000	7.40050E-001	-1.24521E-004	11	...........	0	-327.56
	2204	2205	7.10178E-001	1.06900E-001	0.00000E+000	7.11050E-001	-1.22288E-004	11	...........	0	-327.56
	2233	2234	6.81144E-001	9.89834E-002	0.00000E+000	6.82050E-001	-1.22488E-004	11	...........	0	-327.56
	2262	2263	6.52229E-001	9.24396E-002	0.00000E+000	6.53050E-001	-1.26955E-004	11	...........	0	-327.56
	2291	2292	6.23271E-001	8.47284E-002	0.00000E+000	6.24050E-001	-1.25588E-004	11	...........	0	-327.56
	2320	2321	5.94341E-001	7.50192E-002	0.00000E+000	5.95050E-001	-1.22488E-004	11	...........	0	-327.56
	2349	2350	5.65358E-001	6.28535E-002	0.00000E+000	5.66050E-001	-1.25471E-004	11	...........	0	-327.56
	2378	2379	5.36359E-001	4.96414E-002	0.00000E+000	5.37050E-001	-1.26105E-004	11	...........	0	-327.56
	2407	2408	5.07457E-001	3.24450E-002	0.00000E+000	5.08050E-001	-1.27921E-004	11	...........	0	-327.56
	2436	2437	4.78338E-001	1.54274E-002	0.00000E+000	4.79050E-001	-1.25955E-004	10	...........	0	-327.56
	2465	2466	4.49775E-001	-2.14428E-003	0.00000E+000	4.50050E-001	-1.21088E-004	9	...........	0	-327.56
	2494	2495	4.20868E-001	-2.03022E-002	0.00000E+000	4.21050E-001	-1.24405E-004	10	...........	0	-327.56
	2523	2524	3.91687E-001	-3.92746E-002	0.00000E+000	3.92050E-001	-1.28821E-004	11	...........	0	-327.56
	2552	2553	3.62712E-001	-5.80633E-002	0.00000E+000	3.63050E-001	-1.25655E-004	11	...........	0	-327.56
	2581	2582	3.33763E-001	-7.70973E-002	0.00000E+000	3.34050E-001	-1.31605E-004	11	...........	0	-327.56
	2610	2611	3.04837E-001	-9.72507E-002	0.00000E+000	3.05050E-001	-1.28388E-004	11	...........	0	-327.56
	2639	2640	2.75865E-001	-1.17935E-001	0.00000E+000	2.76050E-001	-1.26488E-004	11	...........	0	-327.56
	2668	2669	2.46905E-001	-1.39862E-001	0.00000E+000	2.47050E-001	-1.28471E-004	11	...........	0	-327.56
	2697	2698	2.17942E-001	-1.60607E-001	0.00000E+000	2.18050E-001	-1.27405E-004	11	...........	0	-327.56
	2726	2727	1.89095E-001	-1.73510E-001	0.00000E+000	1.89050E-001	-1.25155E-004	11	...........	0	-327.56
	2755	2756	1.60129E-001	-1.84154E-001	0.00000E+000	1.60050E-001	-1.28071E-004	11	...........	0	-327.56
	2784	2785	1.31163E-001	-1.98836E-001	0.00000E+000	1.31050E-001	-1.27038E-004	11	...........	0	-327.56
	2813	2814	1.02274E-001	-2.26274E-001	0.00000E+000	1.02050E-001	-1.18171E-004	11	...........	0	-327.56
	2842	2843	7.30328E-002	-2.81763E-001	0.00000E+000	7.30500E-002	-1.28955E-004	12	...........	0	-327.56
	2871	2872	4.40686E-002	-3.12786E-001	0.00000E+000	4.40500E-002	-1.30388E-004	12	...........	0	-327.56
	2900	2901	1.50594E-002	-3.52985E-001	0.00000E+000	1.50500E-002	-1.28888E-004	12	...........	0	-327.56
	2929	2930	-1.35960E-002	-4.00635E-001	0.00000E+000	-1.39500E-002	-1.31705E-004	12	...........	0	-327.56
	2958	2959	-4.25521E-002	-4.12120E-001	0.00000E+000	-4.29500E-002	-1.28771E-004	12	...........	0	-327.56
	2987	2988	-7.15423E-002	-4.00072E-001	0.00000E+000	-7.19500E-002	-1.30571E-004	12	...........	0	-327.56
	3016	3017	-1.00570E-001	-3.64644E-001	0.00000E+000	-1.00950E-001	-1.32371E-004	12	...........	0	-327.56
	3045	3046	-1.29566E-001	-3.35657E-001	0.00000E+000	-1.29950E-001	-1.30821E-004	12	...........	0	-327.56
	3074	3075	-1.58500E-001	-3.20017E-001	0.00000E+000	-1.58950E-001	-1.34238E-004	12	...........	0	-327.56
	3103	3104	-1.87569E-001	-3.06103E-001	0.00000E+000	-1.87950E-001	-1.32405E-004	12	...........	0	-327.56
	3132	3133	-2.16583E-001	-2.79809E-001	0.00000E+000	-2.16950E-001	-1.35638E-004	12	...........	0	-327.56
	3161	3162	-2.45486E-001	-2.53332E-001	0.00000E+000	-2.45950E-001	-1.33971E-004	12	...........	0	-327.56
	3190	3191	-2.74459E-001	-2.52282E-001	0.00000E+000	-2.74950E-001	-1.23605E-004	12	...........	0	-327.56
	3219	3220	-3.03443E-001	-2.58241E-001	0.00000E+000	-3.03950E-001	-1.27871E-004	12	...........	0	-327.56
	3248	3249	-3.32423E-001	-2.66569E-001	0.00000E+000	-3.32950E-001	-1.29755E-004	12	...........	0	-327.56
	3277	3278	-3.61386E-001	-2.78132E-001	0.00000E+000	-3.61950E-001	-1.31971E-004	12	...........	0	-327.56
	3306	3307	-3.90374E-001	-2.97757E-001	0.00000E+000	-3.90950E-001	-1.31055E-004	12	...........	0	-327.56
	3335	3336	-4.19300E-001	-3.30431E-001	0.00000E+000	-4.19950E-001	-1.33871E-004	12	...........	0	-327.56
	3364	3365	-4.48266E-001	-3.64542E-001	0.00000E+000	-4.48950E-001	-1.29421E-004	12	...........	0	-327.56
	3393	3394	-4.77217E-001	-3.99300E-001	0.00000E+000	-4.77950E-001	-1.32455E-004	12	...........	0	-327.56
	3422	3423	-5.06163E-001	-4.50175E-001	0.00000E+000	-5.06950E-001	-1.33955E-004	12	...........	0	-327.56
	3451	3452	-5.35085E-001	-5.01883E-001	0.00000E+000	-5.35950E-001	-1.37155E-004	12	...........	0	-327.56
	3480	3481	-5.64064E-001	-5.58503E-001	0.00000E+000	-5.64950E-001	-1.31221E-004	12	...........	0	-327.56
	3509	3510	-5.93010E-001	-6.17740E-001	0.00000E+000	-5.93950E-001	-1.28088E-004	12	...........	0	-327.56
	3538	3539	-6.21956E-001	-6.79719E-001	0.00000E+000	-6.22950E-001	-1.30905E-004	12	...........	0	-327.56
	3567	3568	-6.50912E-001	-7.42614E-001	0.00000E+000	-6.51950E-001	-1.32671E-004	12	...........	0	-327.56
	3596	3597	-6.79761E-001	-8.06808E-001	0.00000E+000	-6.80950E-001	-1.30638E-004	12	...........	0	-327.56
	3625	3626	-7.08712E-001	-8.67469E-001	0.00000E+000	-7.09950E-001	-1.30971E-004	12	...........	0	-327.56
	3654	3655	-7.37636E-001	-9.36817E-001	0.00000E+000	-7.38950E-001	-1.34638E-004	12	...........	0	-327.56
	3683	3684	-7.66563E-001	-9.99270E-001	0.00000E+000	-7.67950E-001	-1.28538E-004	12	...........	0	-327.56
	3712	3713	-7.95561E-001	-1.06516E+000	0.00000E+000	-7.96950E-001	-1.30138E-004	12	...........	0	-327.56
	3741	3742	-8.24469E-001	-1.12916E+000	0.00000E+000	-8.25950E-001	-1.27321E-004	12	...........	0	-327.56
	3770	3771	-8.53416E-001	-1.19341E+000	0.00000E+000	-8.54950E-001	-1.32338E-004	12	...........	0	-327.56
	3799	3800	-8.82422E-001	-1.26136E+000	0.00000E+000	-8.83950E-001	-1.28605E-004	12	...........	0	-327.56
	3828	3829	-9.11252E-001	-1.32981E+000	0.00000E+000	-9.12950E-001	-1.26638E-004	12	...........	0	-327.56
	3857	3858	-9.40157E-001	-1.39582E+000	0.00000E+000	-9.41950E-001	-1.22505E-004	12	...........	0	-327.56
	3886	3887	-9.69130E-001	-1.46435E+000	0.00000E+000	-9.70950E-001	-1.27638E-004	12	...........	0	-327.56
	3915	3916	-9.98091E-001	-1.52603E+000	0.00000E+000	-9.99950E-001	-1.24255E-004	12	...........	0	-327.56
	3944	3945	-9.69203E-001	-1.42081E+000	0.00000E+000	-9.71000E-001	-1.26138E-004	12	...........	1	-327.56
	3973	3974	-9.40278E-001	-1.23621E+000	0.00000E+000	-9.42000E-001	-1.24905E-004	12	...........	1	-327.56
	4002	4003	-9.11416E-001	-1.09248E+000	0.00000E+000	-9.13000E-001	-1.27288E-004	12	...........	1	-327.56
	4031	4032	-8.82559E-001	-1.04345E+000	0.00000E+000	-8.84000E-001	-1.26788E-004	12	...........	1	-327.56
	4060	4061	-8.53612E-001	-9.60384E-001	0.00000E+000	-8.55000E-001	-1.25821E-004	12	...........	1	-327.56
	4089	4090	-8.24649E-001	-8.70390E-001	0.00000E+000	-8.26000E-001	-1.31538E-004	12	...........	1	-327.56
	4118	4119	-7.95755E-001	-7.97730E-001	0.00000E+000	-7.97000E-001	-1.28621E-004	12	...........	1	-327.56
	4147	4148	-7.66829E-001	-6.97025E-001	0.00000E+000	-7.68000E-001	-1.28871E-004	12	...........	1	-327.56
	4176	4177	-7.37848E-001	-6.37041E-001	0.00000E+000	-7.39000E-001	-1.27888E-004	12	...........	1	-327.56
	4205	4206	-7.08950E-001	-5.51898E-001	0.00000E+000	-7.10000E-001	-1.25305E-004	12	...........	1	-327.56
	4234	4235	-6.80075E-001	-4.30324E-001	0.00000E+000	-6.81000E-001	-1.30271E-004	12	...........	1	-327.56
	4263	4264	-6.51203E-001	-4.29877E-001	0.00000E+000	-6.52000E-001	-1.29721E-004	12	...........	1	-327.56
	4292	4293	-6.22186E-001	-3.86120E-001	0.00000E+000	-6.23000E-001	-1.28288E-004	12	...........	1	-327.56
	4321	4322	-5.93259E-001	-3.41083E-001	0.00000E+000	-5.94000E-001	-1.26355E-004	12	...........	1	-327.56
	4350	4351	-5.64274E-001	-2.89275E-001	0.00000E+000	-5.65000E-001	-1.27705E-004	12	...........	1	-327.56
	4379	4380	-5.35033E-001	-2.35882E-001	0.00000E+000	-5.36000E-001	-1.17488E-004	11	...........	1	-327.56
	4408	4409	-5.06188E-001	-1.86561E-001	0.00000E+000	-5.07000E-001	-1.23921E-004	11	...........	1	-327.56
	4437	4438	-4.77276E-001	-1.46406E-001	0.00000E+000	-4.78000E-001	-1.28121E-004	11	...........	1	-327.56
	4466	4467	-4.48442E-001	-6.45866E-002	0.00000E+000	-4.49000E-001	-1.30488E-004	11	...........	1	-327.56
	4495	4496	-4.19398E-001	-1.30656E-002	0.00000E+000	-4.20000E-001	-1.31105E-004	10	...........	1	-327.56
	4524	4525	-3.90653E-001	3.51847E-002	0.00000E+000	-3.91000E-001	-1.28621E-004	11	...........	1	-327.56
	4553	4554	-3.61700E-001	8.10025E-002	0.00000E+000	-3.62000E-001	-1.31121E-004	11	...........	1	-327.56
	4582	4583	-3.32844E-001	1.21284E-001	0.00000E+000	-3.33000E-001	-1.28705E-004	11	...........	1	-327.56
	4611	4612	-3.03909E-001	1.52116E-001	0.00000E+000	-3.04000E-001	-1.29121E-004	11	...........	1	-327.56
	4640	4641	-2.74954E-001	1.78691E-001	0.00000E+000	-2.75000E-001	-1.25488E-004	11	...........	1	-327.56
	4669	4670	-2.46016E-001	2.01341E-001	0.00000E+000	-2.46000E-001	-1.25488E-004	11	...........	1	-327.56
	4698	4699	-2.17168E-001	2.21128E-001	0.00000E+000	-2.17000E-001	-1.27655E-004	11	...........	1	-327.56
	4727	4728	-1.88196E-001	2.37483E-001	0.00000E+000	-1.88000E-001	-1.22955E-004	11	...........	1	-327.56
	4756	4757	-1.59242E-001	2.54126E-001	0.00000E+000	-1.59000E-001	-1.25221E-004	11	...........	1	-327.56
	4785	4786	-1.29984E-001	2.79329E-001	0.00000E+000	-1.30000E-001	-1.31421E-004	12	...........	1	-327.56
	4814	4815	-1.01003E-001	2.93607E-001	0.00000E+000	-1.01000E-001	-1.29471E-004	12	...........	1	-327.56
	4843	4844	-7.20313E-002	3.09175E-001	0.00000E+000	-7.20000E-002	-1.33605E-004	12	...........	1	-327.56
	4872	4873	-4.30520E-002	3.20342E-001	0.00000E+000	-4.30000E-002	-1.35455E-004	12	...........	1	-327.56
	4901	4902	-1.40905E-002	3.50991E-001	0.00000E+000	-1.40000E-002	-1.30788E-004	12	...........	1	-327.56
	4930	4931	1.45934E-002	3.60986E-001	0.00000E+000	1.50000E-002	-1.33088E-004	12	...........	1	-327.56
	4959	4960	4.35893E-002	3.61259E-001	0.00000E+000	4.40000E-002	-1.31305E-004	12	...........	1	-327.56
	4988	4989	7.25895E-002	3.68342E-001	0.00000E+000	7.30000E-002	-1.30371E-004	12	...........	1	-327.56
	5017	5018	1.01562E-001	3.74909E-001	0.00000E+000	1.02000E-001	-1.30038E-004	12	...........	1	-327.56
	5046	5047	1.30541E-001	3.86323E-001	0.00000E+000	1.31000E-001	-1.34921E-004	12	...........	1	-327.56
	5075	5076	1.59507E-001	4.05406E-001	0.00000E+000	1.60000E-001	-1.31321E-004	12	...........	1	-327.56
	5104	5105	1.88491E-001	4.23709E-001	0.00000E+000	1.89000E-001	-1.28938E-004	12	...........	1	-327.56
	5133	5134	2.17444E-001	4.56715E-001	0.00000E+000	2.18000E-001	-1.29221E-004	12	...........	1	-327.56
	5162	5163	2.46327E-001	5.75152E-001	0.00000E+000	2.47000E-001	-1.29921E-004	12	...........	1	-327.56
	5191	5192	2.75231E-001	6.27526E-001	0.00000E+000	2.76000E-001	-1.32088E-004	12	...........	1	-327.56
	5220	5221	3.04209E-001	6.69502E-001	0.00000E+000	3.05000E-001	-1.32371E-004	12	...........	1	-327.56
	5249	5250	3.33124E-001	7.06532E-001	0.00000E+000	3.34000E-001	-1.31071E-004	12	...........	1	-327.56
	5278	5279	3.62105E-001	7.42621E-001	0.00000E+000	3.63000E-001	-1.31371E-004	12	...........	1	-327.56
	5307	5308	3.91072E-001	7.76715E-001	0.00000E+000	3.92000E-001	-1.27488E-004	12	...........	1	-327.56
	5336	5337	4.20044E-001	8.09029E-001	0.00000E+000	4.21000E-001	-1.32438E-004	12	...........	1	-327.56
	5365	5366	4.48926E-001	8.48204E-001	0.00000E+000	4.50000E-001	-1.33271E-004	12	...........	1	-327.56
	5394	5395	4.77887E-001	8.93092E-001	0.00000E+000	4.79000E-001	-1.31655E-004	12	...........	1	-327.56
	5423	5424	5.06866E-001	9.36632E-001	0.00000E+000	5.08000E-001	-1.32355E-004	12	...........	1	-327.56
	5452	5453	5.35840E-001	9.62179E-001	0.00000E+000	5.37000E-001	-1.30938E-004	12	...........	1	-327.56
	5481	5482	5.64770E-001	1.01670E+000	0.00000E+000	5.66000E-001	-1.31921E-004	12	...........	1	-327.56
	5510	5511	5.93759E-001	1.07353E+000	0.00000E+000	5.95000E-001	-1.31855E-004	12	...........	1	-327.56
	5539	5540	6.22685E-001	1.13081E+000	0.00000E+000	6.24000E-001	-1.31288E-004	12	...........	1	-327.56
	5568	5569	6.51640E-001	1.18939E+000	0.00000E+000	6.53000E-001	-1.33255E-004	12	...........	1	-327.56
	5597	5598	6.80494E-001	1.24563E+000	0.00000E+000	6.82000E-001	-1.31521E-004	12	...........	1	-327.56
	5626	5627	7.09482E-001	1.30285E+000	0.00000E+000	7.11000E-001	-1.28921E-004	12	...........	1	-327.56
	5655	5656	7.38397E-001	1.36255E+000	0.00000E+000	7.40000E-001	-1.29105E-004	12	...........	1	-327.56
	5684	5685	7.67383E-001	1.41360E+000	0.00000E+000	7.69000E-001	-1.33605E-004	12	...........	1	-327.56
	5713	5714	7.96360E-001	1.46806E+000	0.00000E+000	7.98000E-001	-1.32655E-004	12	...........	1	-327.56
	5742	5743	8.25329E-001	1.47494E+000	0.00000E+000	8.27000E-001	-1.29655E-004	12	...........	1	-327.56
	5771	5772	8.54404E-001	1.22825E+000	0.00000E+000	8.56000E-001	-1.31271E-004	12	...........	1	-327.56
	5800	5801	8.83372E-001	1.15752E+000	0.00000E+000	8.85000E-001	-1.31421E-004	12	...........	1	-327.56
	5829	5830	9.12361E-001	1.10645E+000	0.00000E+000	9.14000E-001	-1.30488E-004	12	...........	1	-327.56
	5858	5859	9.41350E-001	1.05885E+000	0.00000E+000	9.43000E-001	-1.26805E-004	12	...........	1	-327.56
	5887	5888	9.70358E-001	1.00755E+000	0.00000E+000	9.72000E-001	-1.30188E-004	12	...........	1	-327.56
	5916	5917	9.99400E-001	9.57816E-001	0.00000E+000	1.00100E+000	-1.30471E-004	12	...........	1	-327.56
	5945	5946	1.02838E+000	9.30574E-001	0.00000E+000	1.03000E+000	-1.25738E-004	12	...........	1	-327.56
	5974	5975	1.05740E+000	9.11849E-001	0.00000E+000	1.05900E+000	-1.25305E-004	12	...........	1	-327.56
	6003	6004	1.08638E+000	8.98022E-001	0.00000E+000	1.08800E+000	-1.28705E-004	12	...........	1	-327.56
	6032	6033	1.11525E+000	8.84627E-001	0.00000E+000	1.11700E+000	-1.30138E-004	12	...........	1	-327.56
	6061	6062	1.14426E+000	8.73589E-001	0.00000E+000	1.14600E+000	-1.28838E-004	12	...........	1	-327.56
	6090	6091	1.17324E+000	8.68895E-001	0.00000E+000	1.17500E+000	-1.31305E-004	12	...........	1	-327.56
	6119	6120	1.20224E+000	8.62895E-001	0.00000E+000	1.20400E+000	-1.26871E-004	12	...........	1	-327.56
	6148	6149	1.23125E+000	8.46073E-001	0.00000E+000	1.23300E+000	-1.28605E-004	12	...........	1	-327.56
	6177	6178	1.26027E+000	8.46165E-001	0.00000E+000	1.26200E+000	-1.28288E-004	12	...........	1	-327.56
	6206	6207	1.28921E+000	9.15404E-001	0.00000E+000	1.29100E+000	-1.28071E-004	12	...........	1	-327.56
	6235	6236	1.31819E+000	9.06761E-001	0.00000E+000	1.32000E+000	-1.24521E-004	12	...........	1	-327.56
	6264	6265	1.34712E+000	9.38125E-001	0.00000E+000	1.34900E+000	-1.29238E-004	12	...........	1	-327.56
	6293	6294	1.37600E+000	9.67975E-001	0.00000E+000	1.37800E+000	-1.29338E-004	12	...........	1	-327.56
	6322	6323	1.40501E+000	9.98788E-001	0.00000E+000	1.40700E+000	-1.26638E-004	12	...........	1	-327.56
	6351	6352	1.43396E+000	1.02423E+000	0.00000E+000	1.43600E+000	-1.23971E-004	12	...........	1	-327.56
	6380	6381	1.46296E+000	1.05267E+000	0.00000E+000	1.46500E+000	-1.24188E-004	12	...........	1	-327.56
	6409	6410	1.49192E+000	1.10387E+000	0.00000E+000	1.49400E+000	-1.25488E-004	12	...........	1	-327.56
	6438	6439	1.52086E+000	1.16692E+000	0.00000E+000	1.52300E+000	-1.28505E-004	12	...........	1	-327.56
	6467	6468	1.54967E+000	1.22912E+000	0.00000E+000	1.55200E+000	-1.31505E-004	12	...........	1	-327.56
	6496	6497	1.57870E+000	1.26266E+000	0.00000E+000	1.58100E+000	-1.28005E-004	12	...........	1	-327.56
	6525	6526	1.60756E+000	1.54287E+000	0.00000E+000	1.61000E+000	-1.25355E-004	12	...........	1	-327.56
	6554	6555	1.63662E+000	1.50858E+000	0.00000E+000	1.63900E+000	-1.26721E-004	12	...........	1	-327.56
	6583	6584	1.66549E+000	1.83426E+000	0.00000E+000	1.66800E+000	-1.26671E-004	12	...........	1	-327.56
	6612	6613	1.69447E+000	1.79516E+000	0.00000E+000	1.69700E+000	-1.25938E-004	12	...........	1	-327.56
	6641	6642	1.67151E+000	1.69725E+000	0.00000E+000	1.67400E+000	-1.25421E-004	12	...........	1	-327.56
	6670	6671	1.64253E+000	1.66177E+000	0.00000E+000	1.64500E+000	-1.30871E-004	12	...........	1	-327.56
	6699	6700	1.61358E+000	1.55773E+000	0.00000E+000	1.61600E+000	-1.22855E-004	12	...........	1	-327.56
	6728	6729	1.58462E+000	1.47564E+000	0.00000E+000	1.58700E+000	-1.25188E-004	12	...........	1	-327.56
	6757	6758	1.55563E+000	1.39679E+000	0.00000E+000	1.55800E+000	-1.26371E-004	12	...........	1	-327.56
	6786	6787	1.52673E+000	1.29991E+000	0.00000E+000	1.52900E+000	-1.23788E-004	12	...........	1	-327.56
	6815	6816	1.49778E+000	1.22180E+000	0.00000E+000	1.50000E+000	-1.25721E-004	12	...........	1	-327.56
	6844	6845	1.46890E+000	1.14388E+000	0.00000E+000	1.47100E+000	-1.26305E-004	12	...........	1	-327.56
	6873	6874	1.43998E+000	1.02824E+000	0.00000E+000	1.44200E+000	-1.24338E-004	12	...........	1	-327.56
	6902	6903	1.41107E+000	9.59547E-001	0.00000E+000	1.41300E+000	-1.24438E-004	12	...........	1	-327.56
	6931	6932	1.38207E+000	8.83715E-001	0.00000E+000	1.38400E+000	-1.24888E-004	12	...........	1	-327.56
	6960	6961	1.35315E+000	7.87328E-001	0.00000E+000	1.35500E+000	-1.23438E-004	12	...........	1	-327.56
	6989	6990	1.32425E+000	7.05034E-001	0.00000E+000	1.32600E+000	-1.22038E-004	12	...........	1	-327.56
	7018	7019	1.29530E+000	6.23719E-001	0.00000E+000	1.29700E+000	-1.26555E-004	12	...........	1	-327.56
	7047	7048	1.26646E+000	5.38667E-001	0.00000E+000	1.26800E+000	-1.28188E-004	12	...........	1	-327.56
	7076	7077	1.23752E+000	4.76898E-001	0.00000E+000	1.23900E+000	-1.22055E-004	12	...........	1	-327.56
	7105	7106	1.20857E+000	4.07058E-001	0.00000E+000	1.21000E+000	-1.24255E-004	12	...........	1	-327.56
	7134	7135	1.17960E+000	3.55697E-001	0.00000E+000	1.18100E+000	-1.23305E-004	12	...........	1	-327.56
	7163	7164	1.15064E+000	3.14175E-001	0.00000E+000	1.15200E+000	-1.24371E-004	12	...........	1	-327.56
	7192	7193	1.12171E+000	2.83436E-001	0.00000E+000	1.12300E+000	-1.24721E-004	12	...........	1	-327.56
	7221	7222	1.09274E+000	2.62122E-001	0.00000E+000	1.09400E+000	-1.25288E-004	12	...........	1	-327.56
	7250	7251	1.06378E+000	2.47755E-001	0.00000E+000	1.06500E+000	-1.25571E-004	12	...........	1	-327.56
	7279	7280	1.03458E+000	2.37007E-001	0.00000E+000	1.03600E+000	-1.21871E-004	11	...........	1	-327.56
	7308	7309	1.00562E+000	2.31560E-001	0.00000E+000	1.00700E+000	-1.20421E-004	11	...........	1	-327.56
	7337	7338	9.76640E-001	2.27369E-001	0.00000E+000	9.78000E-001	-1.20505E-004	11	...........	1	-327.56
	7366	7367	9.47641E-001	2.23843E-001	0.00000E+000	9.49000E-001	-1.21488E-004	11	...........	1	-327.56
	7395	7396	9.18695E-001	2.21224E-001	0.00000E+000	9.20000E-001	-1.21921E-004	11	...........	1	-327.56
	7424	7425	8.89711E-001	2.17549E-001	0.00000E+000	8.91000E-001	-1.24688E-004	11	...........	1	-327.56
	7453	7454	8.60740E-001	2.18576E-001	0.00000E+000	8.62000E-001	-1.24571E-004	11	...........	1	-327.56
	7482	7483	8.31780E-001	2.21481E-001	0.00000E+000	8.33000E-001	-1.23688E-004	11	...........	1	-327.56
	7511	7512	8.02839E-001	2.18184E-001	0.00000E+000	8.04000E-001	-1.23438E-004	11	...........	1	-327.56
	7540	7541	7.73892E-001	2.00079E-001	0.00000E+000	7.75000E-001	-1.24588E-004	11	...........	1	-327.56
	7569	7570	7.44902E-001	2.11047E-001	0.00000E+000	7.46000E-001	-1.27955E-004	11	...........	1	-327.56
	7598	7599	7.15943E-001	2.01936E-001	0.00000E+000	7.17000E-001	-1.23321E-004	11	...........	1	-327.56
	7627	7628	6.86950E-001	1.97591E-001	0.00000E+000	6.88000E-001	-1.25788E-004	11	...........	1	-327.56
	7656	7657	6.57968E-001	1.93052E-001	0.00000E+000	6.59000E-001	-1.24771E-004	11	...........	1	-327.56
	7685	7686	6.28985E-001	1.88091E-001	0.00000E+000	6.30000E-001	-1.26121E-004	11	...........	1	-327.56
	7714	7715	6.00110E-001	1.82721E-001	0.00000E+000	6.01000E-001	-1.28888E-004	11	...........	1	-327.56
	7743	7744	5.71113E-001	1.91683E-001	0.00000E+000	5.72000E-001	-1.28871E-004	11	...........	1	-327.56
	7772	7773	5.42158E-001	1.77738E-001	0.00000E+000	5.43000E-001	-1.27755E-004	11	...........	1	-327.56
	7801	7802	5.13148E-001	1.68028E-001	0.00000E+000	5.14000E-001	-1.27621E-004	11	...........	1	-327.56
	7830	7831	4.84215E-001	1.57568E-001	0.00000E+000	4.85000E-001	-1.29805E-004	11	...........	1	-327.56
	7859	7860	4.55241E-001	1.46460E-001	0.00000E+000	4.56000E-001	-1.28588E-004	11	...........	1	-327.56
	7888	7889	4.26253E-001	1.34222E-001	0.00000E+000	4.27000E-001	-1.25355E-004	11	...........	1	-327.56
	7917	7918	3.97275E-001	1.19389E-001	0.00000E+000	3.98000E-001	-1.27321E-004	11	...........	1	-327.56
	7946	7947	3.68415E-001	1.02829E-001	0.00000E+000	3.69000E-001	-1.25188E-004	11	...........	1	-327.56
	7975	7976	3.39469E-001	8.59439E-002	0.00000E+000	3.40000E-001	-1.25505E-004	11	...........	1	-327.56
	8004	8005	3.10505E-001	7.14340E-002	0.00000E+000	3.11000E-001	-1.31855E-004	11	...........	1	-327.56
	8033	8034	2.81543E-001	7.00365E-002	0.00000E+000	2.82000E-001	-1.30605E-004	11	...........	1	-327.56
	8062	8063	2.52559E-001	6.97549E-002	0.00000E+000	2.53000E-001	-1.30071E-004	11	...........	1	-327.56
	8091	8092	2.23561E-001	5.19652E-002	0.00000E+000	2.24000E-001	-1.29555E-004	11	...........	1	-327.56
	8120	8121	1.94372E-001	2.23686E-002	0.00000E+000	1.95000E-001	-1.25421E-004	10	...........	1	-327.56
	8149	8150	1.66224E-001	-3.13697E-003	0.00000E+000	1.66000E-001	-1.00638E-004	9	...........	1	-327.56
	8178	8179	1.36837E-001	-2.88164E-002	0.00000E+000	1.37000E-001	-1.31205E-004	11	...........	1	-327.56
	8207	8208	1.07887E-001	-5.06482E-002	0.00000E+000	1.08000E-001	-1.25338E-004	11	...........	1	-327.56
	8236	8237	7.89606E-002	-6.78930E-002	0.00000E+000	7.90000E-002	-1.28938E-004	11	...........	1	-327.56
	8265	8266	4.99676E-002	-8.17384E-002	0.00000E+000	5.00000E-002	-1.30788E-004	11	...........	1	-327.56
	8294	8295	2.10147E-002	-9.28458E-002	0.00000E+000	2.10000E-002	-1.27838E-004	11	...........	1	-327.56
	8323	8324	-7.75134E-003	-1.01997E-001	0.00000E+000	-7.99996E-003	-1.33021E-004	11	...........	1	-327.56
	8352	8353	-3.68117E-002	-1.09600E-001	0.00000E+000	-3.70000E-002	-1.31738E-004	11	...........	1	-327.56
	8381	8382	-6.56432E-002	-1.15995E-001	0.00000E+000	-6.60000E-002	-1.30138E-004	11	...........	1	-327.56
	8410	8411	-9.46057E-002	-1.22652E-001	0.00000E+000	-9.50000E-002	-1.28105E-004	11	...........	1	-327.56
	8439	8440	-1.23551E-001	-1.31966E-001	0.00000E+000	-1.24000E-001	-1.29938E-004	11	...........	1	-327.56
	8468	8469	-1.52551E-001	-1.36849E-001	0.00000E+000	-1.53000E-001	-1.32455E-004	11	...........	1	-327.56
	8497	8498	-1.81543E-001	-1.40853E-001	0.00000E+000	-1.82000E-001	-1.30505E-004	11	...........	1	-327.56
	8526	8527	-2.10512E-001	-1.44279E-001	0.00000E+000	-2.11000E-001	-1.26455E-004	11	...........	1	-327.56
	8555	8556	-2.39518E-001	-1.46136E-001	0.00000E+000	-2.40000E-001	-1.30105E-004	11	...........	1	-327.56
	8584	8585	-2.68514E-001	-1.47395E-001	0.00000E+000	-2.69000E-001	-1.31121E-004	11	...........	1	-327.56
	8613	8614	-2.97388E-001	-1.50486E-001	0.00000E+000	-2.98000E-001	-1.30488E-004	11	...........	1	-327.56
	8642	8643	-3.26340E-001	-1.56294E-001	0.00000E+000	-3.27000E-001	-1.32155E-004	11	...........	1	-327.56
	8671	8672	-3.55294E-001	-1.68420E-001	0.00000E+000	-3.56000E-001	-1.30188E-004	11	...........	1	-327.56
	8700	8701	-3.84277E-001	-1.96409E-001	0.00000E+000	-3.85000E-001	-1.24721E-004	11	...........	1	-327.56
	8729	8730	-4.13205E-001	-2.37116E-001	0.00000E+000	-4.14000E-001	-1.15621E-004	11	...........	1	-327.56
	8758	8759	-4.42437E-001	-2.84613E-001	0.00000E+000	-4.43000E-001	-1.28805E-004	12	...........	1	-327.56
	8787	8788	-4.71393E-001	-3.28496E-001	0.00000E+000	-4.72000E-001	-1.29138E-004	12	...........	1	-327.56
	8816	8817	-5.00262E-001	-3.79399E-001	0.00000E+000	-5.01000E-001	-1.27021E-004	12	...........	1	-327.56
	8845	8846	-5.29166E-001	-4.29985E-001	0.00000E+000	-5.30000E-001	-1.30905E-004	12	...........	1	-327.56
	8874	8875	-5.58119E-001	-4.84973E-001	0.00000E+000	-5.59000E-001	-1.26205E-004	12	...........	1	-327.56
	8903	8904	-5.87072E-001	-5.45506E-001	0.00000E+000	-5.88000E-001	-1.33521E-004	12	...........	1	-327.56
	8932	8933	-6.16041E-001	-6.09708E-001	0.00000E+000	-6.17000E-001	-1.34405E-004	12	...........	1	-327.56
	8961	8962	-6.44946E-001	-6.74245E-001	0.00000E+000	-6.46000E-001	-1.30421E-004	12	...........	1	-327.56
	8990	8991	-6.73934E-001	-7.42602E-001	0.00000E+000	-6.75000E-001	-1.31255E-004	12	...........	1	-327.56
	9019	9020	-7.02894E-001	-8.09832E-001	0.00000E+000	-7.04000E-001	-1.30105E-004	12	...........	1	-327.56
	9048	9049	-7.31725E-001	-8.80425E-001	0.00000E+000	-7.33000E-001	-1.32521E-004	12	...........	1	-327.56
	9077	9078	-7.60650E-001	-9.49894E-001	0.00000E+000	-7.62000E-001	-1.31755E-004	12	...........	1	-327.56
	9106	9107	-7.89611E-001	-1.02005E+000	0.00000E+000	-7.91000E-001	-1.29921E-004	12	...........	1	-327.56
	9135	9136	-8.18559E-001	-1.09424E+000	0.00000E+000	-8.20000E-001	-1.28305E-004	12	...........	1	-327.56
	9164	9165	-8.47467E-001	-1.17678E+000	0.00000E+000	-8.49000E-001	-1.28321E-004	12	...........	1	-327.56
	9193	9194	-8.76435E-001	-1.24575E+000	0.00000E+000	-8.78000E-001	-1.30188E-004	12	...........	1	-327.56
	9222	9223	-9.05400E-001	-1.28918E+000	0.00000E+000	-9.07000E-001	-1.30471E-004	12	...........	1	-327.56
	9251	9252	-9.34287E-001	-1.35154E+000	0.00000E+000	-9.36000E-001	-1.29021E-004	12	...........	1	-327.56
	9280	9281	-9.63208E-001	-1.40050E+000	0.00000E+000	-9.65000E-001	-1.30155E-004	12	...........	1	-327.56
	9309	9310	-9.92149E-001	-1.45072E+000	0.00000E+000	-9.94000E-001	-1.26121E-004	12	...........	1	-327.56
	9338	9339	-9.75271E-001	-1.33006E+000	0.00000E+000	-9.77000E-001	-1.25638E-004	12	...........	2	-327.56
	9367	9368	-9.46353E-001	-1.19507E+000	0.00000E+000	-9.48000E-001	-1.29288E-004	12	...........	2	-327.56
	9396	9397	-9.17444E-001	-1.05938E+000	0.00000E+000	-9.19000E-001	-1.31655E-004	12	...........	2	-327.56
	9425	9426	-8.88522E-001	-9.70494E-001	0.00000E+000	-8.90000E-001	-1.33805E-004	12	...........	2	-327.56
	9454	9455	-8.59532E-001	-9.72462E-001	0.00000E+000	-8.61000E-001	-1.29688E-004	12	...........	2	-327.56
	9483	9484	-8.30660E-001	-8.90875E-001	0.00000E+000	-8.32000E-001	-1.31688E-004	12	...........	2	-327.56
	9512	9513	-8.01719E-001	-8.08165E-001	0.00000E+000	-8.03000E-001	-1.29771E-004	12	...........	2	-327.56
	9541	9542	-7.72814E-001	-7.57568E-001	0.00000E+000	-7.74000E-001	-1.30055E-004	12	...........	2	-327.56
	9570	9571	-7.43856E-001	-6.90534E-001	0.00000E+000	-7.45000E-001	-1.30038E-004	12	...........	2	-327.56
	9599	9600	-7.14951E-001	-6.19551E-001	0.00000E+000	-7.16000E-001	-1.28621E-004	12	...........	2	-327.56
	9628	9629	-6.86031E-001	-5.06063E-001	0.00000E+000	-6.87000E-001	-1.32021E-004	12	...........	2	-327.56
	9657	9658	-6.57057E-001	-4.78772E-001	0.00000E+000	-6.58000E-001	-1.28505E-004	12	...........	2	-327.56
	9686	9687	-6.28118E-001	-4.05794E-001	0.00000E+000	-6.29000E-001	-1.28455E-004	12	...........	2	-327.56
	9715	9716	-5.99275E-001	-3.40985E-001	0.00000E+000	-6.00000E-001	-1.24688E-004	12	...........	2	-327.56
	9744	9745	-5.70302E-001	-2.79714E-001	0.00000E+000	-5.71000E-001	-1.30571E-004	12	...........	2	-327.56
	9773	9774	-5.41121E-001	-2.15466E-001	0.00000E+000	-5.42000E-001	-1.18971E-004	11	...........	2	-327.56
	9802	9803	-5.12198E-001	-1.53110E-001	0.00000E+000	-5.13000E-001	-1.30488E-004	11	...........	2	-327.56
	9831	9832	-4.83340E-001	-9.43664E-002	0.00000E+000	-4.84000E-001	-1.29488E-004	11	...........	2	-327.56
	9860	9861	-4.54462E-001	-3.75457E-002	0.00000E+000	-4.55000E-001	-1.31771E-004	11	...........	2	-327.56
	9889	9890	-4.25767E-001	1.89763E-002	0.00000E+000	-4.26000E-001	-1.26138E-004	10	...........	2	-327.56
	9918	9919	-3.96715E-001	7.42343E-002	0.00000E+000	-3.97000E-001	-1.33671E-004	11	...........	2	-327.56
	9947	9948	-3.67846E-001	1.27756E-001	0.00000E+000	-3.68000E-001	-1.30788E-004	11	...........	2	-327.56
	9976	9977	-3.38935E-001	1.74073E-001	0.00000E+000	-3.39000E-001	-1.30871E-004	11	...........	2	-327.56
	10005	10006	-3.10007E-001	2.09016E-001	0.00000E+000	-3.10000E-001	-1.27405E-004	11	...........	2	-327.56
	10034	10035	-2.81077E-001	2.32156E-001	0.00000E+000	-2.81000E-001	-1.28121E-004	11	...........	2	-327.56
	10063	10064	-2.52097E-001	2.41700E-001	0.00000E+000	-2.52000E-001	-1.25921E-004	11	...........	2	-327.56
	10092	10093	-2.23098E-001	2.37494E-001	0.00000E+000	-2.23000E-001	-1.31005E-004	11	...........	2	-327.56
	10121	10122	-1.94145E-001	2.35747E-001	0.00000E+000	-1.94000E-001	-1.28405E-004	11	...........	2	-327.56
	10150	10151	-1.65281E-001	2.59515E-001	0.00000E+000	-1.65000E-001	-1.28738E-004	11	...........	2	-327.56
	10179	10180	-1.36002E-001	2.70232E-001	0.00000E+000	-1.36000E-001	-1.34238E-004	12	...........	2	-327.56
	10208	10209	-1.06982E-001	2.66418E-001	0.00000E+000	-1.07000E-001	-1.33938E-004	12	...........	2	-327.56
	10237	10238	-7.80584E-002	2.78319E-001	0.00000E+000	-7.80000E-002	-1.34371E-004	12	...........	2	-327.56
	10266	10267	-4.90560E-002	3.03109E-001	0.00000E+000	-4.90000E-002	-1.30271E-004	12	...........	2	-327.56
	10295	10296	-2.00603E-002	2.99768E-001	0.00000E+000	-2.00000E-002	-1.30905E-004	12	...........	2	-327.56
	10324	10325	8.71327E-003	2.96138E-001	0.00000E+000	9.00003E-003	-1.29655E-004	12	...........	2	-327.56
	10353	10354	3.76966E-002	3.22493E-001	0.00000E+000	3.80000E-002	-1.32988E-004	12	...........	2	-327.56
	10382	10383	6.65717E-002	3.59028E-001	0.00000E+000	6.70000E-002	-1.35438E-004	12	...........	2	-327.56
	10411	10412	9.55334E-002	4.01729E-001	0.00000E+000	9.60000E-002	-1.31205E-004	12	...........	2	-327.56
	10440	10441	1.24445E-001	4.52218E-001	0.00000E+000	1.25000E-001	-1.34105E-004	12	...........	2	-327.56
	10469	10470	1.53448E-001	5.09051E-001	0.00000E+000	1.54000E-001	-1.33521E-004	12	...........	2	-327.56
	10498	10499	1.82390E-001	5.69923E-001	0.00000E+000	1.83000E-001	-1.33621E-004	12	...........	2	-327.56
	10527	10528	2.11337E-001	6.27536E-001	0.00000E+000	2.12000E-001	-1.34155E-004	12	...........	2	-327.56
	10556	10557	2.40280E-001	6.74191E-001	0.00000E+000	2.41000E-001	-1.31638E-004	12	...........	2	-327.56
	10585	10586	2.69128E-001	7.26350E-001	0.00000E+000	2.70000E-001	-1.34788E-004	12	...........	2	-327.56
	10614	10615	2.98116E-001	7.67381E-001	0.00000E+000	2.99000E-001	-1.32305E-004	12	...........	2	-327.56
	10643	10644	3.27037E-001	8.04256E-001	0.00000E+000	3.28000E-001	-1.27671E-004	12	...........	2	-327.56
	10672	10673	3.56013E-001	8.28005E-001	0.00000E+000	3.57000E-001	-1.31371E-004	12	...........	2	-327.56
	10701	10702	3.85016E-001	8.49937E-001	0.00000E+000	3.86000E-001	-1.34405E-004	12	...........	2	-327.56
	10730	10731	4.13977E-001	9.00779E-001	0.00000E+000	4.15000E-001	-1.33588E-004	12	...........	2	-327.56
	10759	10760	4.42952E-001	9.40243E-001	0.00000E+000	4.44000E-001	-1.31488E-004	12	...........	2	-327.56
	10788	10789	4.71923E-001	9.74118E-001	0.00000E+000	4.73000E-001	-1.33905E-004	12	...........	2	-327.56
	10817	10818	5.00771E-001	1.00924E+000	0.00000E+000	5.02000E-001	-1.35921E-004	12	...........	2	-327.56
	10846	10847	5.29756E-001	1.05001E+000	0.00000E+000	5.31000E-001	-1.34438E-004	12	...........	2	-327.56
	10875	10876	5.58699E-001	1.09427E+000	0.00000E+000	5.60000E-001	-1.32988E-004	12	...........	2	-327.56
	10904	10905	5.87663E-001	1.13994E+000	0.00000E+000	5.89000E-001	-1.34555E-004	12	...........	2	-327.56
	10933	10934	6.16648E-001	1.18083E+000	0.00000E+000	6.18000E-001	-1.30488E-004	12	...........	2	-327.56
	10962	10963	6.45615E-001	1.22742E+000	0.00000E+000	6.47000E-001	-1.30421E-004	12	...........	2	-327.56
	10991	10992	6.74590E-001	1.28017E+000	0.00000E+000	6.76000E-001	-1.33505E-004	12	...........	2	-327.56
	11020	11021	7.03516E-001	1.33612E+000	0.00000E+000	7.05000E-001	-1.34088E-004	12	...........	2	-327.56
	11049	11050	7.32379E-001	1.39240E+000	0.00000E+000	7.34000E-001	-1.35088E-004	12	...........	2	-327.56
	11078	11079	7.61427E-001	1.44700E+000	0.00000E+000	7.63000E-001	-1.31921E-004	12	...........	2	-327.56
	11107	11108	7.90342E-001	1.50041E+000	0.00000E+000	7.92000E-001	-1.33971E-004	12	...........	2	-327.56
	11136	11137	8.19277E-001	1.55261E+000	0.00000E+000	8.21000E-001	-1.33771E-004	12	...........	2	-327.56
	11165	11166	8.48259E-001	1.59336E+000	0.00000E+000	8.50000E-001	-1.34838E-004	12	...........	2	-327.56
	11194	11195	8.77255E-001	1.54891E+000	0.00000E+000	8.79000E-001	-1.29571E-004	12	...........	2	-327.56
	11223	11224	9.06337E-001	1.31585E+000	0.00000E+000	9.08000E-001	-1.28538E-004	12	...........	2	-327.56
	11252	11253	9.35233E-001	1.18899E+000	0.00000E+000	9.37000E-001	-1.30621E-004	12	...........	2	-327.56
	11281	11282	9.64325E-001	1.05188E+000	0.00000E+000	9.66000E-001	-1.30088E-004	12	...........	2	-327.56
	11310	11311	9.93438E-001	9.43403E-001	0.00000E+000	9.95000E-001	-1.33171E-004	12	...........	2	-327.56
	11339	11340	1.02240E+000	8.69842E-001	0.00000E+000	1.02400E+000	-1.31171E-004	12	...........	2	-327.56
	11368	11369	1.05144E+000	8.16476E-001	0.00000E+000	1.05300E+000	-1.28438E-004	12	...........	2	-327.56
	11397	11398	1.08047E+000	7.79079E-001	0.00000E+000	1.08200E+000	-1.28738E-004	12	...........	2	-327.56
	11426	11427	1.10948E+000	7.49510E-001	0.00000E+000	1.11100E+000	-1.25138E-004	12	...........	2	-327.56
	11455	11456	1.13841E+000	7.33224E-001	0.00000E+000	1.14000E+000	-1.32738E-004	12	...........	2	-327.56
	11484	11485	1.16734E+000	7.16091E-001	0.00000E+000	1.16900E+000	-1.30705E-004	12	...........	2	-327.56
	11513	11514	1.19634E+000	6.75981E-001	0.00000E+000	1.19800E+000	-1.30805E-004	12	...........	2	-327.56
	11542	11543	1.22537E+000	6.85566E-001	0.00000E+000	1.22700E+000	-1.30488E-004	12	...........	2	-327.56
	11571	11572	1.25435E+000	6.84455E-001	0.00000E+000	1.25600E+000	-1.27338E-004	12	...........	2	-327.56
	11600	11601	1.28335E+000	7.04615E-001	0.00000E+000	1.28500E+000	-1.30221E-004	12	...........	2	-327.56
	11629	11630	1.31231E+000	7.36663E-001	0.00000E+000	1.31400E+000	-1.27588E-004	12	...........	2	-327.56
	11658	11659	1.34123E+000	7.80525E-001	0.00000E+000	1.34300E+000	-1.28071E-004	12	...........	2	-327.56
	11687	11688	1.37009E+000	8.17123E-001	0.00000E+000	1.37200E+000	-1.28771E-004	12	...........	2	-327.56
	11716	11717	1.39906E+000	8.58039E-001	0.00000E+000	1.40100E+000	-1.26105E-004	12	...........	2	-327.56
	11745	11746	1.42804E+000	8.93489E-001	0.00000E+000	1.43000E+000	-1.28971E-004	12	...........	2	-327.56
	11774	11775	1.45698E+000	9.42373E-001	0.00000E+000	1.45900E+000	-1.27688E-004	12	...........	2	-327.56
	11803	11804	1.48594E+000	1.00574E+000	0.00000E+000	1.48800E+000	-1.28255E-004	12	...........	2	-327.56
	11832	11833	1.51490E+000	1.11150E+000	0.00000E+000	1.51700E+000	-1.27888E-004	12	...........	2	-327.56
	11861	11862	1.54380E+000	1.22161E+000	0.00000E+000	1.54600E+000	-1.27138E-004	12	...........	2	-327.56
	11890	11891	1.57272E+000	1.35487E+000	0.00000E+000	1.57500E+000	-1.30871E-004	12	...........	2	-327.56
	11919	11920	1.60155E+000	1.47206E+000	0.00000E+000	1.60400E+000	-1.29555E-004	12	...........	2	-327.56
	11948	11949	1.63052E+000	1.59250E+000	0.00000E+000	1.63300E+000	-1.29305E-004	12	...........	2	-327.56
	11977	11978	1.65948E+000	1.69581E+000	0.00000E+000	1.66200E+000	-1.27705E-004	12	...........	2	-327.56
	12006	12007	1.68843E+000	1.79624E+000	0.00000E+000	1.69100E+000	-1.27121E-004	12	...........	2	-327.56
	12035	12036	1.67741E+000	1.78297E+000	0.00000E+000	1.68000E+000	-1.27155E-004	12	...........	2	-327.56
	12064	12065	1.64856E+000	1.65735E+000	0.00000E+000	1.65100E+000	-1.24505E-004	12	...........	2	-327.56
	12093	12094	1.61961E+000	1.57359E+000	0.00000E+000	1.62200E+000	-1.25788E-004	12	...........	2	-327.56
	12122	12123	1.59064E+000	1.48018E+000	0.00000E+000	1.59300E+000	-1.26205E-004	12	...........	2	-327.56
	12151	12152	1.56163E+000	1.39357E+000	0.00000E+000	1.56400E+000	-1.27988E-004	12	...........	2	-327.56
	12180	12181	1.53276E+000	1.30783E+000	0.00000E+000	1.53500E+000	-1.27938E-004	12	...........	2	-327.56
	12209	12210	1.50385E+000	1.22884E+000	0.00000E+000	1.50600E+000	-1.27371E-004	12	...........	2	-327.56
	12238	12239	1.47485E+000	1.12272E+000	0.00000E+000	1.47700E+000	-1.25738E-004	12	...........	2	-327.56
	12267	12268	1.44595E+000	1.04961E+000	0.00000E+000	1.44800E+000	-1.23538E-004	12	...........	2	-327.56
	12296	12297	1.41705E+000	9.58075E-001	0.00000E+000	1.41900E+000	-1.25205E-004	12	...........	2	-327.56
	12325	12326	1.38811E+000	8.73859E-001	0.00000E+000	1.39000E+000	-1.26205E-004	12	...........	2	-327.56
	12354	12355	1.35918E+000	7.87221E-001	0.00000E+000	1.36100E+000	-1.24655E-004	12	...........	2	-327.56
	12383	12384	1.33026E+000	7.03617E-001	0.00000E+000	1.33200E+000	-1.22571E-004	12	...........	2	-327.56
	12412	12413	1.30133E+000	6.26898E-001	0.00000E+000	1.30300E+000	-1.25955E-004	12	...........	2	-327.56
	12441	12442	1.27238E+000	5.54463E-001	0.00000E+000	1.27400E+000	-1.22538E-004	12	...........	2	-327.56
	12470	12471	1.24341E+000	4.86544E-001	0.00000E+000	1.24500E+000	-1.24505E-004	12	...........	2	-327.56
	12499	12500	1.21457E+000	4.22675E-001	0.00000E+000	1.21600E+000	-1.25505E-004	12	...........	2	-327.56
	12528	12529	1.18560E+000	3.69111E-001	0.00000E+000	1.18700E+000	-1.21805E-004	12	...........	2	-327.56
	12557	12558	1.15669E+000	3.20262E-001	0.00000E+000	1.15800E+000	-1.26488E-004	12	...........	2	-327.56
	12586	12587	1.12769E+000	2.81785E-001	0.00000E+000	1.12900E+000	-1.23538E-004	12	...........	2	-327.56
	12615	12616	1.09874E+000	2.54328E-001	0.00000E+000	1.10000E+000	-1.25155E-004	12	...........	2	-327.56
	12644	12645	1.06950E+000	2.38923E-001	0.00000E+000	1.07100E+000	-1.16188E-004	11	...........	2	-327.56
	12673	12674	1.04053E+000	2.31639E-001	0.00000E+000	1.04200E+000	-1.21638E-004	11	...........	2	-327.56
	12702	12703	1.01154E+000	2.24159E-001	0.00000E+000	1.01300E+000	-1.23971E-004	11	...........	2	-327.56
	12731	12732	9.82674E-001	2.20101E-001	0.00000E+000	9.84000E-001	-1.21238E-004	11	...........	2	-327.56
	12760	12761	9.53685E-001	2.16526E-001	0.00000E+000	9.55000E-001	-1.21455E-004	11	...........	2	-327.56
	12789	12790	9.24715E-001	2.14448E-001	0.00000E+000	9.26000E-001	-1.26321E-004	11	...........	2	-327.56
	12818	12819	8.95723E-001	2.15904E-001	0.00000E+000	8.97000E-001	-1.24038E-004	11	...........	2	-327.56
	12847	12848	8.66740E-001	2.10195E-001	0.00000E+000	8.68000E-001	-1.22021E-004	11	...........	2	-327.56
	12876	12877	8.37770E-001	2.11610E-001	0.00000E+000	8.39000E-001	-1.26988E-004	11	...........	2	-327.56
	12905	12906	8.08779E-001	2.17796E-001	0.00000E+000	8.10000E-001	-1.24688E-004	11	...........	2	-327.56
	12934	12935	7.79900E-001	2.00660E-001	0.00000E+000	7.81000E-001	-1.22238E-004	11	...........	2	-327.56
	12963	12964	7.50954E-001	1.89658E-001	0.00000E+000	7.52000E-001	-1.24405E-004	11	...........	2	-327.56
	12992	12993	7.21964E-001	1.89499E-001	0.00000E+000	7.23000E-001	-1.23955E-004	11	...........	2	-327.56
	13021	13022	6.93012E-001	1.87347E-001	0.00000E+000	6.94000E-001	-1.25488E-004	11	...........	2	-327.56
	13050	13051	6.63987E-001	1.92541E-001	0.00000E+000	6.65000E-001	-1.28205E-004	11	...........	2	-327.56
	13079	13080	6.35050E-001	1.88010E-001	0.00000E+000	6.36000E-001	-1.29455E-004	11	...........	2	-327.56
	13108	13109	6.06040E-001	1.84717E-001	0.00000E+000	6.07000E-001	-1.26638E-004	11	...........	2	-327.56
	13137	13138	5.77013E-001	1.80010E-001	0.00000E+000	5.78000E-001	-1.28538E-004	11	...........	2	-327.56
	13166	13167	5.48157E-001	1.73496E-001	0.00000E+000	5.49000E-001	-1.28088E-004	11	...........	2	-327.56
	13195	13196	5.19170E-001	1.66806E-001	0.00000E+000	5.20000E-001	-1.25821E-004	11	...........	2	-327.56
	13224	13225	4.90241E-001	1.59674E-001	0.00000E+000	4.91000E-001	-1.25755E-004	11	...........	2	-327.56
	13253	13254	4.61234E-001	1.51574E-001	0.00000E+000	4.62000E-001	-1.26455E-004	11	...........	2	-327.56
	13282	13283	4.32270E-001	1.41118E-001	0.00000E+000	4.33000E-001	-1.28521E-004	11	...........	2	-327.56
	13311	13312	4.03299E-001	1.27428E-001	0.00000E+000	4.04000E-001	-1.30438E-004	11	...........	2	-327.56
	13340	13341	3.74341E-001	1.11036E-001	0.00000E+000	3.75000E-001	-1.31755E-004	11	...........	2	-327.56
	13369	13370	3.45452E-001	9.58265E-002	0.00000E+000	3.46000E-001	-1.26355E-004	11	...........	2	-327.56
	13398	13399	3.16489E-001	7.98701E-002	0.00000E+000	3.17000E-001	-1.28188E-004	11	...........	2	-327.56
	13427	13428	2.87545E-001	7.67235E-002	0.00000E+000	2.88000E-001	-1.30721E-004	11	...........	2	-327.56
	13456	13457	2.58551E-001	8.01793E-002	0.00000E+000	2.59000E-001	-1.34505E-004	11	...........	2	-327.56
	13485	13486	2.29549E-001	6.58611E-002	0.00000E+000	2.30000E-001	-1.28355E-004	11	...........	2	-327.56
	13514	13515	2.00636E-001	3.67203E-002	0.00000E+000	2.01000E-001	-1.28871E-004	11	...........	2	-327.56
	13543	13544	1.71574E-001	9.59285E-003	0.00000E+000	1.72000E-001	-1.29071E-004	10	...........	2	-327.56
	13572	13573	1.42865E-001	-1.37746E-002	0.00000E+000	1.43000E-001	-1.31538E-004	10	...........	2	-327.56
	13601	13602	1.13867E-001	-3.56890E-002	0.00000E+000	1.14000E-001	-1.29971E-004	11	...........	2	-327.56
	13630	13631	8.49528E-002	-5.26154E-002	0.00000E+000	8.50000E-002	-1.31338E-004	11	...........	2	-327.56
	13659	13660	5.59869E-002	-6.60018E-002	0.00000E+000	5.60000E-002	-1.34421E-004	11	...........	2	-327.56
	13688	13689	2.70312E-002	-7.62480E-002	0.00000E+000	2.70000E-002	-1.31521E-004	11	...........	2	-327.56
	13717	13718	-1.73213E-003	-8.29021E-002	0.00000E+000	-1.99997E-003	-1.30105E-004	11	...........	2	-327.56
	13746	13747	-3.07924E-002	-8.59819E-002	0.00000E+000	-3.10000E-002	-1.33205E-004	11	...........	2	-327.56
	13775	13776	-5.97628E-002	-8.91571E-002	0.00000E+000	-6.00000E-002	-1.35705E-004	11	...........	2	-327.56
	13804	13805	-8.87802E-002	-9.12448E-002	0.00000E+000	-8.90000E-002	-1.33105E-004	11	...........	2	-327.56
	13833	13834	-1.17615E-001	-9.43906E-002	0.00000E+000	-1.18000E-001	-1.30688E-004	11	...........	2	-327.56
	13862	13863	-1.46593E-001	-9.06778E-002	0.00000E+000	-1.47000E-001	-1.30921E-004	11	...........	2	-327.56
	13891	13892	-1.75605E-001	-8.33382E-002	0.00000E+000	-1.76000E-001	-1.31005E-004	11	...........	2	-327.56
	13920	13921	-2.04607E-001	-8.39598E-002	0.00000E+000	-2.05000E-001	-1.34121E-004	11	...........	2	-327.56
	13936	13937	-2.20533E-001	-8.49647E-002	0.00000E+000	-2.21000E-001	-1.35538E-004	11	...........	2	-327.56