File: testing/data/240902_08_MCL13_cswWE_CV2_750C_CO2.DTA
EXPLAIN
TAG	CV
TITLE	LABEL	Cyclic Voltammetry	Test Identifier
DATE	LABEL	9/3/2024	Date
TIME	LABEL	0:23:34	Time
NOTES	NOTES	5	Notes...
	cswWE - carbon steel wire
cspWE - carbon steel plate 2x2 tapered

Carbon steel plate counter electrode
Carbon steel wire reference electrode
PSTAT	PSTAT	REF3000-48128	Potentiostat
VINIT	POTEN	0.00000E+000	T	Initial E (V)
VLIMIT1	POTEN	1.70000E+000	F	Scan Limit 1 (V)
VLIMIT2	POTEN	-1.10000E+000	F	Scan Limit 2 (V)
VFINAL	POTEN	1.70000E+000	F	Final E (V)
SCANRATE	QUANT	2.00000E+000	Scan Rate (mV/s)
STEPSIZE	QUANT	1.00000E+000	Step Size (mV)
CYCLES	IQUANT	2	Cycles (#)
IMODE	SELECTOR	0	I/E Range Mode
IRANGE	QUANT	3.00000E-001	Max Current (mA)
AREA	QUANT	1.00000E+000	Sample Area (cm^2)
EQDELAY	QUANT	0.00000E+000	Equil. Time (s)
IRCOMP	SELECTOR	0	IRComp
PFCOR	QUANT	5.00000E+001	PF Corr. (ohm)
SAMPLINGMODE	SELECTOR	1	Sampling Mode
EOC	QUANT	0.1612323	Open Circuit (V)
ELECTRODETYPE	SELECTOR	0	Electrode Type
STRIPPING	TOGGLE	F	Used for Stripping
SEQUENCER	TOGGLE	TRUE	Run as Sequence
PSTATMODEL	IQUANT	5	Pstat Model
PSTATSECTION	LABEL	REF3000-48128	Pstat Section
PSTATSERIALNO	LABEL	48128	Pstat Serial Number
CTRLMODE	IQUANT	1	Control Mode
ELECTROMETER	IQUANT	0	RE=0 or CS=1
IESTAB	IQUANT	2	I/E Stability
CASPEED	IQUANT	4	Control Amp Speed
CONVENTION	IQUANT	1	Current Convention
ICHRANGE	IQUANT	2	Ich Range
ICHRANGEMODE	TOGGLE	F	Ich Auto Range
ICHOFFSETENABLE	TOGGLE	F	Ich Offset Enable
ICHOFFSET	QUANT	0	Ich Offset (V)
ICHFILTER	IQUANT	3	Ich Filter
VCHRANGE	IQUANT	2	Vch Range
VCHRANGEMODE	TOGGLE	F	Vch Auto Range
VCHOFFSETENABLE	TOGGLE	F	Vch Offset Enable
VCHOFFSET	QUANT	0	Vch Offset (V)
VCHFILTER	IQUANT	3	Vch Filter
ACHRANGE	IQUANT	2	Ach Range
ACHOFFSETENABLE	TOGGLE	F	Ach Offset Enable
ACHOFFSET	QUANT	0	Ach Offset (V)
ACHFILTER	IQUANT	1	Ach Filter
IERANGELOWERLIMIT	IQUANT	2	I/E Range Lower Limit
IERANGEMODE	TOGGLE	T	I/E AutoRange
IERANGE	IQUANT	9	I/E Range
POSFEEDENABLE	TOGGLE	F	Positive Feedback IR Comp
POSFEEDRESISTANCE	QUANT	0	Positive Feedback Resistance (ohm)
ACHSELECT	IQUANT	4	Ach Select
SENSECABLEID	IQUANT	14	Sense Cable ID
PWRCABLEID	IQUANT	7	Power Cable ID
DCCALDATE	LABEL	8/16/2024	DC Calibration Date
ACCALDATE	LABEL	8/16/2024	AC Calibration Date
THERMOSELECT	IQUANT	1	Thermo Select
FRAMEWORKVERSION	LABEL	7.10.3	Framework Version
INSTRUMENTVERSION	LABEL	4.91	Instrument Version
COMMVERSION	LABEL	5.10	Communications Version
CPUPLDVERSION	LABEL	6.00	CPU PLD Version
CTRLPLDVERSION	LABEL	3.21	CTRL PLD Version
PSTATPLDVERSION	LABEL	0.00	PSTAT PLD Version
COMPLIANCEVOLTAGE	IQUANT	0	Compliance Voltage
CURVE1	TABLE
	Pt	T	Vf	Im	Vu	Sig	Ach	IERange	Over	Temp
	#	s	V vs. Ref.	A	V	V	V	#	bits	deg C
	0	0.5	1.60894E-001	9.61789E-004	0.00000E+000	1.61250E-001	-1.01288E-004	9	...........	-327.56
	9	5	1.69888E-001	4.25451E-003	0.00000E+000	1.70250E-001	-1.00821E-004	10	...........	-327.56
	18	9.5	1.78871E-001	7.03748E-003	0.00000E+000	1.79250E-001	-9.94548E-005	10	...........	-327.56
	27	14	1.87895E-001	9.11190E-003	0.00000E+000	1.88250E-001	-1.00921E-004	10	...........	-327.56
	36	18.5	1.96765E-001	1.12744E-002	0.00000E+000	1.97250E-001	-9.89548E-005	10	...........	-327.56
	45	23	2.05779E-001	1.31356E-002	0.00000E+000	2.06250E-001	-1.08355E-004	10	...........	-327.56
	54	27.5	2.14777E-001	1.48541E-002	0.00000E+000	2.15250E-001	-1.05055E-004	10	...........	-327.56
	63	32	2.23694E-001	1.66702E-002	0.00000E+000	2.24250E-001	-1.06255E-004	10	...........	-327.56
	72	36.5	2.32708E-001	1.84404E-002	0.00000E+000	2.33250E-001	-1.05888E-004	10	...........	-327.56
	81	41	2.41688E-001	2.00780E-002	0.00000E+000	2.42250E-001	-1.09488E-004	10	...........	-327.56
	90	45.5	2.50615E-001	2.19735E-002	0.00000E+000	2.51250E-001	-1.09188E-004	10	...........	-327.56
	99	50	2.59620E-001	2.38048E-002	0.00000E+000	2.60250E-001	-1.06988E-004	10	...........	-327.56
	108	54.5	2.68590E-001	2.55441E-002	0.00000E+000	2.69250E-001	-1.05588E-004	10	...........	-327.56
	117	59	2.77829E-001	2.75330E-002	0.00000E+000	2.78250E-001	-1.09788E-004	11	...........	-327.56
	126	63.5	2.86873E-001	2.92928E-002	0.00000E+000	2.87250E-001	-1.06721E-004	11	...........	-327.56
	135	68	2.95858E-001	3.10999E-002	0.00000E+000	2.96250E-001	-1.11021E-004	11	...........	-327.56
	144	72.5	3.04788E-001	3.28529E-002	0.00000E+000	3.05250E-001	-1.10521E-004	11	...........	-327.56
	153	77	3.13797E-001	3.48387E-002	0.00000E+000	3.14250E-001	-1.05455E-004	11	...........	-327.56
	162	81.5	3.22707E-001	3.72055E-002	0.00000E+000	3.23250E-001	-1.11455E-004	11	...........	-327.56
	171	86	3.31741E-001	3.92579E-002	0.00000E+000	3.32250E-001	-1.08721E-004	11	...........	-327.56
	180	90.5	3.40761E-001	4.05920E-002	0.00000E+000	3.41250E-001	-1.09288E-004	11	...........	-327.56
	189	95	3.49696E-001	3.95388E-002	0.00000E+000	3.50250E-001	-1.08755E-004	11	...........	-327.56
	198	99.5	3.58734E-001	3.72747E-002	0.00000E+000	3.59250E-001	-1.10688E-004	11	...........	-327.56
	207	104	3.67774E-001	3.42987E-002	0.00000E+000	3.68250E-001	-1.06088E-004	11	...........	-327.56
	216	108.5	3.76710E-001	3.06225E-002	0.00000E+000	3.77250E-001	-1.09121E-004	11	...........	-327.56
	225	113	3.85744E-001	2.74167E-002	0.00000E+000	3.86250E-001	-1.10788E-004	11	...........	-327.56
	234	117.5	3.94743E-001	2.49958E-002	0.00000E+000	3.95250E-001	-1.09488E-004	11	...........	-327.56
	243	122	4.03447E-001	2.31734E-002	0.00000E+000	4.04250E-001	-1.06821E-004	10	...........	-327.56
	252	126.5	4.12500E-001	2.16714E-002	0.00000E+000	4.13250E-001	-1.04321E-004	10	...........	-327.56
	261	131	4.21523E-001	2.00900E-002	0.00000E+000	4.22250E-001	-1.05321E-004	10	...........	-327.56
	270	135.5	4.30505E-001	1.89724E-002	0.00000E+000	4.31250E-001	-1.07588E-004	10	...........	-327.56
	279	140	4.39539E-001	1.82928E-002	0.00000E+000	4.40250E-001	-1.06021E-004	10	...........	-327.56
	288	144.5	4.48452E-001	1.77437E-002	0.00000E+000	4.49250E-001	-1.04721E-004	10	...........	-327.56
	297	149	4.57527E-001	1.77380E-002	0.00000E+000	4.58250E-001	-1.05221E-004	10	...........	-327.56
	306	153.5	4.66533E-001	1.78854E-002	0.00000E+000	4.67250E-001	-1.08055E-004	10	...........	-327.56
	315	158	4.75433E-001	1.82285E-002	0.00000E+000	4.76250E-001	-1.04888E-004	10	...........	-327.56
	324	162.5	4.84459E-001	1.85912E-002	0.00000E+000	4.85250E-001	-1.07055E-004	10	...........	-327.56
	333	167	4.93505E-001	1.89008E-002	0.00000E+000	4.94250E-001	-9.86548E-005	10	...........	-327.56
	342	171.5	5.02384E-001	1.89858E-002	0.00000E+000	5.03250E-001	-1.03521E-004	10	...........	-327.56
	351	176	5.11452E-001	1.93135E-002	0.00000E+000	5.12250E-001	-1.03721E-004	10	...........	-327.56
	360	180.5	5.20435E-001	1.94830E-002	0.00000E+000	5.21250E-001	-1.07755E-004	10	...........	-327.56
	369	185	5.29426E-001	1.95447E-002	0.00000E+000	5.30250E-001	-1.08021E-004	10	...........	-327.56
	378	189.5	5.38381E-001	1.99276E-002	0.00000E+000	5.39250E-001	-1.03188E-004	10	...........	-327.56
	387	194	5.47429E-001	1.98403E-002	0.00000E+000	5.48250E-001	-1.06755E-004	10	...........	-327.56
	396	198.5	5.56355E-001	1.98042E-002	0.00000E+000	5.57250E-001	-1.03221E-004	10	...........	-327.56
	405	203	5.65384E-001	2.00592E-002	0.00000E+000	5.66250E-001	-1.03521E-004	10	...........	-327.56
	414	207.5	5.74389E-001	1.99114E-002	0.00000E+000	5.75250E-001	-1.07521E-004	10	...........	-327.56
	423	212	5.83343E-001	1.98898E-002	0.00000E+000	5.84250E-001	-1.07421E-004	10	...........	-327.56
	432	216.5	5.92370E-001	1.99845E-002	0.00000E+000	5.93250E-001	-1.04121E-004	10	...........	-327.56
	441	221	6.01384E-001	1.99169E-002	0.00000E+000	6.02250E-001	-1.01755E-004	10	...........	-327.56
	450	225.5	6.10326E-001	1.99306E-002	0.00000E+000	6.11250E-001	-1.05788E-004	10	...........	-327.56
	459	230	6.19356E-001	1.97981E-002	0.00000E+000	6.20250E-001	-1.08521E-004	10	...........	-327.56
	468	234.5	6.28243E-001	2.00277E-002	0.00000E+000	6.29250E-001	-1.07188E-004	10	...........	-327.56
	477	239	6.37290E-001	1.97018E-002	0.00000E+000	6.38250E-001	-1.05421E-004	10	...........	-327.56
	486	243.5	6.46337E-001	1.96303E-002	0.00000E+000	6.47250E-001	-1.05888E-004	10	...........	-327.56
	495	248	6.55233E-001	1.98728E-002	0.00000E+000	6.56250E-001	-1.07221E-004	10	...........	-327.56
	504	252.5	6.64298E-001	1.94676E-002	0.00000E+000	6.65250E-001	-1.06455E-004	10	...........	-327.56
	513	257	6.73323E-001	1.94195E-002	0.00000E+000	6.74250E-001	-1.05455E-004	10	...........	-327.56
	522	261.5	6.82245E-001	1.95034E-002	0.00000E+000	6.83250E-001	-1.03455E-004	10	...........	-327.56
	531	266	6.91263E-001	1.90383E-002	0.00000E+000	6.92250E-001	-1.05555E-004	10	...........	-327.56
	540	270.5	7.00293E-001	1.92907E-002	0.00000E+000	7.01250E-001	-1.01055E-004	10	...........	-327.56
	549	275	7.09244E-001	1.89859E-002	0.00000E+000	7.10250E-001	-1.04321E-004	10	...........	-327.56
	558	279.5	7.18278E-001	1.88641E-002	0.00000E+000	7.19250E-001	-1.06121E-004	10	...........	-327.56
	567	284	7.27255E-001	1.86996E-002	0.00000E+000	7.28250E-001	-1.02355E-004	10	...........	-327.56
	576	288.5	7.36207E-001	1.84984E-002	0.00000E+000	7.37250E-001	-1.04688E-004	10	...........	-327.56
	585	293	7.45228E-001	1.80717E-002	0.00000E+000	7.46250E-001	-1.07155E-004	10	...........	-327.56
	594	297.5	7.54256E-001	1.80461E-002	0.00000E+000	7.55250E-001	-1.01255E-004	10	...........	-327.56
	603	302	7.63186E-001	1.77300E-002	0.00000E+000	7.64250E-001	-1.06421E-004	10	...........	-327.56
	612	306.5	7.72232E-001	1.76575E-002	0.00000E+000	7.73250E-001	-1.04221E-004	10	...........	-327.56
	621	311	7.81146E-001	1.73523E-002	0.00000E+000	7.82250E-001	-1.03488E-004	10	...........	-327.56
	630	315.5	7.90214E-001	1.72007E-002	0.00000E+000	7.91250E-001	-1.05155E-004	10	...........	-327.56
	639	320	7.99220E-001	1.73175E-002	0.00000E+000	8.00250E-001	-1.06155E-004	10	...........	-327.56
	648	324.5	8.08117E-001	1.71158E-002	0.00000E+000	8.09250E-001	-1.08855E-004	10	...........	-327.56
	657	329	8.17174E-001	1.67485E-002	0.00000E+000	8.18250E-001	-1.07021E-004	10	...........	-327.56
	666	333.5	8.26183E-001	1.69165E-002	0.00000E+000	8.27250E-001	-1.03955E-004	10	...........	-327.56
	675	338	8.35138E-001	1.67598E-002	0.00000E+000	8.36250E-001	-1.06421E-004	10	...........	-327.56
	684	342.5	8.44126E-001	1.63959E-002	0.00000E+000	8.45250E-001	-1.03955E-004	10	...........	-327.56
	693	347	8.53173E-001	1.64916E-002	0.00000E+000	8.54250E-001	-1.05121E-004	10	...........	-327.56
	702	351.5	8.62114E-001	1.62689E-002	0.00000E+000	8.63250E-001	-1.05655E-004	10	...........	-327.56
	711	356	8.71132E-001	1.62548E-002	0.00000E+000	8.72250E-001	-1.04155E-004	10	...........	-327.56
	720	360.5	8.80167E-001	1.62396E-002	0.00000E+000	8.81250E-001	-1.05155E-004	10	...........	-327.56
	729	365	8.89076E-001	1.63739E-002	0.00000E+000	8.90250E-001	-1.07355E-004	10	...........	-327.56
	738	369.5	8.98127E-001	1.65645E-002	0.00000E+000	8.99250E-001	-1.06455E-004	10	...........	-327.56
	747	374	9.07122E-001	1.67127E-002	0.00000E+000	9.08250E-001	-1.03855E-004	10	...........	-327.56
	756	378.5	9.16063E-001	1.68171E-002	0.00000E+000	9.17250E-001	-1.06588E-004	10	...........	-327.56
	765	383	9.25055E-001	1.71503E-002	0.00000E+000	9.26250E-001	-1.06688E-004	10	...........	-327.56
	774	387.5	9.34044E-001	1.73636E-002	0.00000E+000	9.35250E-001	-1.01621E-004	10	...........	-327.56
	783	392	9.43004E-001	1.78618E-002	0.00000E+000	9.44250E-001	-1.01521E-004	10	...........	-327.56
	792	396.5	9.52025E-001	1.82485E-002	0.00000E+000	9.53250E-001	-1.02388E-004	10	...........	-327.56
	801	401	9.60923E-001	1.94534E-002	0.00000E+000	9.62250E-001	-1.04888E-004	10	...........	-327.56
	810	405.5	9.69953E-001	2.10248E-002	0.00000E+000	9.71250E-001	-1.01955E-004	10	...........	-327.56
	819	410	9.78969E-001	2.25723E-002	0.00000E+000	9.80250E-001	-1.01988E-004	10	...........	-327.56
	828	414.5	9.87862E-001	2.35480E-002	0.00000E+000	9.89250E-001	-1.02188E-004	10	...........	-327.56
	837	419	9.96883E-001	2.42302E-002	0.00000E+000	9.98250E-001	-1.05155E-004	10	...........	-327.56
	846	423.5	1.00588E+000	2.65586E-002	0.00000E+000	1.00725E+000	-1.01188E-004	10	...........	-327.56
	855	428	1.01510E+000	2.86025E-002	0.00000E+000	1.01625E+000	-1.05821E-004	11	...........	-327.56
	864	432.5	1.02415E+000	3.07428E-002	0.00000E+000	1.02525E+000	-1.05388E-004	11	...........	-327.56
	873	437	1.03313E+000	3.28515E-002	0.00000E+000	1.03425E+000	-1.08521E-004	11	...........	-327.56
	882	441.5	1.04208E+000	3.50125E-002	0.00000E+000	1.04325E+000	-1.07621E-004	11	...........	-327.56
	891	446	1.05113E+000	3.61975E-002	0.00000E+000	1.05225E+000	-1.06555E-004	11	...........	-327.56
	900	450.5	1.06013E+000	3.77472E-002	0.00000E+000	1.06125E+000	-1.06921E-004	11	...........	-327.56
	909	455	1.06907E+000	3.98125E-002	0.00000E+000	1.07025E+000	-1.06821E-004	11	...........	-327.56
	918	459.5	1.07809E+000	4.21441E-002	0.00000E+000	1.07925E+000	-1.05788E-004	11	...........	-327.56
	927	464	1.08709E+000	4.36842E-002	0.00000E+000	1.08825E+000	-1.06121E-004	11	...........	-327.56
	936	468.5	1.09602E+000	4.47711E-002	0.00000E+000	1.09725E+000	-1.09421E-004	11	...........	-327.56
	945	473	1.10507E+000	4.53360E-002	0.00000E+000	1.10625E+000	-1.07555E-004	11	...........	-327.56
	954	477.5	1.11397E+000	4.48140E-002	0.00000E+000	1.11525E+000	-1.03121E-004	11	...........	-327.56
	963	482	1.12308E+000	4.35481E-002	0.00000E+000	1.12425E+000	-1.08355E-004	11	...........	-327.56
	972	486.5	1.13202E+000	4.11481E-002	0.00000E+000	1.13325E+000	-1.06521E-004	11	...........	-327.56
	981	491	1.14092E+000	3.80062E-002	0.00000E+000	1.14225E+000	-1.10188E-004	11	...........	-327.56
	990	495.5	1.14997E+000	3.52513E-002	0.00000E+000	1.15125E+000	-1.04588E-004	11	...........	-327.56
	999	500	1.15903E+000	3.35051E-002	0.00000E+000	1.16025E+000	-1.02355E-004	11	...........	-327.56
	1008	504.5	1.16794E+000	3.29414E-002	0.00000E+000	1.16925E+000	-1.07988E-004	11	...........	-327.56
	1017	509	1.17698E+000	3.37643E-002	0.00000E+000	1.17825E+000	-1.07121E-004	11	...........	-327.56
	1026	513.5	1.18600E+000	3.55432E-002	0.00000E+000	1.18725E+000	-1.05088E-004	11	...........	-327.56
	1035	518	1.19496E+000	3.79660E-002	0.00000E+000	1.19625E+000	-1.07621E-004	11	...........	-327.56
	1044	522.5	1.20394E+000	4.09157E-002	0.00000E+000	1.20525E+000	-1.01888E-004	11	...........	-327.56
	1053	527	1.21298E+000	4.44481E-002	0.00000E+000	1.21425E+000	-1.06721E-004	11	...........	-327.56
	1062	531.5	1.22189E+000	4.88425E-002	0.00000E+000	1.22325E+000	-1.02921E-004	11	...........	-327.56
	1071	536	1.23094E+000	5.40647E-002	0.00000E+000	1.23225E+000	-1.05188E-004	11	...........	-327.56
	1080	540.5	1.23993E+000	6.04286E-002	0.00000E+000	1.24125E+000	-1.08055E-004	11	...........	-327.56
	1089	545	1.24886E+000	6.76615E-002	0.00000E+000	1.25025E+000	-1.06921E-004	11	...........	-327.56
	1098	549.5	1.25789E+000	7.56055E-002	0.00000E+000	1.25925E+000	-1.06288E-004	11	...........	-327.56
	1107	554	1.26687E+000	8.43151E-002	0.00000E+000	1.26825E+000	-1.06455E-004	11	...........	-327.56
	1116	558.5	1.27582E+000	9.44600E-002	0.00000E+000	1.27725E+000	-1.05021E-004	11	...........	-327.56
	1125	563	1.28481E+000	1.05949E-001	0.00000E+000	1.28625E+000	-1.08488E-004	11	...........	-327.56
	1134	567.5	1.29369E+000	1.18328E-001	0.00000E+000	1.29525E+000	-1.07688E-004	11	...........	-327.56
	1143	572	1.30273E+000	1.31923E-001	0.00000E+000	1.30425E+000	-1.05488E-004	11	...........	-327.56
	1152	576.5	1.31176E+000	1.46615E-001	0.00000E+000	1.31325E+000	-1.03488E-004	11	...........	-327.56
	1161	581	1.32063E+000	1.61546E-001	0.00000E+000	1.32225E+000	-1.05655E-004	11	...........	-327.56
	1170	585.5	1.32962E+000	1.78154E-001	0.00000E+000	1.33125E+000	-1.08521E-004	11	...........	-327.56
	1179	590	1.33860E+000	1.97007E-001	0.00000E+000	1.34025E+000	-1.02255E-004	11	...........	-327.56
	1188	594.5	1.34749E+000	2.15774E-001	0.00000E+000	1.34925E+000	-1.03655E-004	11	...........	-327.56
	1197	599	1.35647E+000	2.35324E-001	0.00000E+000	1.35825E+000	-1.01755E-004	11	...........	-327.56
	1206	603.5	1.36548E+000	2.55296E-001	0.00000E+000	1.36725E+000	-1.01821E-004	11	...........	-327.56
	1215	608	1.37468E+000	2.76436E-001	0.00000E+000	1.37625E+000	-1.04021E-004	12	...........	-327.56
	1224	612.5	1.38370E+000	2.97676E-001	0.00000E+000	1.38525E+000	-1.07988E-004	12	...........	-327.56
	1233	617	1.39271E+000	3.14993E-001	0.00000E+000	1.39425E+000	-1.05188E-004	12	...........	-327.56
	1242	621.5	1.40159E+000	3.37263E-001	0.00000E+000	1.40325E+000	-1.03655E-004	12	...........	-327.56
	1251	626	1.41064E+000	3.61994E-001	0.00000E+000	1.41225E+000	-1.07355E-004	12	...........	-327.56
	1260	630.5	1.41964E+000	3.84484E-001	0.00000E+000	1.42125E+000	-1.09288E-004	12	...........	-327.56
	1269	635	1.42862E+000	4.05856E-001	0.00000E+000	1.43025E+000	-1.06421E-004	12	...........	-327.56
	1278	639.5	1.43756E+000	4.25732E-001	0.00000E+000	1.43925E+000	-1.06821E-004	12	...........	-327.56
	1287	644	1.44652E+000	4.44860E-001	0.00000E+000	1.44825E+000	-1.05488E-004	12	...........	-327.56
	1296	648.5	1.45548E+000	4.64355E-001	0.00000E+000	1.45725E+000	-1.03988E-004	12	...........	-327.56
	1305	653	1.46452E+000	4.84622E-001	0.00000E+000	1.46625E+000	-1.07155E-004	12	...........	-327.56
	1314	657.5	1.47350E+000	5.04118E-001	0.00000E+000	1.47525E+000	-1.08188E-004	12	...........	-327.56
	1323	662	1.48244E+000	5.20842E-001	0.00000E+000	1.48425E+000	-1.08555E-004	12	...........	-327.56
	1332	666.5	1.49146E+000	5.47085E-001	0.00000E+000	1.49325E+000	-1.04121E-004	12	...........	-327.56
	1341	671	1.50036E+000	5.71044E-001	0.00000E+000	1.50225E+000	-1.09988E-004	12	...........	-327.56
	1350	675.5	1.50939E+000	5.92978E-001	0.00000E+000	1.51125E+000	-1.06621E-004	12	...........	-327.56
	1359	680	1.51841E+000	6.16215E-001	0.00000E+000	1.52025E+000	-1.08221E-004	12	...........	-327.56
	1368	684.5	1.52734E+000	6.37212E-001	0.00000E+000	1.52925E+000	-1.08088E-004	12	...........	-327.56
	1377	689	1.53630E+000	6.65689E-001	0.00000E+000	1.53825E+000	-1.02121E-004	12	...........	-327.56
	1386	693.5	1.54529E+000	6.92090E-001	0.00000E+000	1.54725E+000	-1.05955E-004	12	...........	-327.56
	1395	698	1.55422E+000	7.16933E-001	0.00000E+000	1.55625E+000	-1.05555E-004	12	...........	-327.56
	1404	702.5	1.56323E+000	7.49930E-001	0.00000E+000	1.56525E+000	-1.06388E-004	12	...........	-327.56
	1413	707	1.57222E+000	7.72570E-001	0.00000E+000	1.57425E+000	-1.07888E-004	12	...........	-327.56
	1422	711.5	1.58116E+000	7.99476E-001	0.00000E+000	1.58325E+000	-1.04288E-004	12	...........	-327.56
	1431	716	1.59020E+000	8.26935E-001	0.00000E+000	1.59225E+000	-1.04221E-004	12	...........	-327.56
	1440	720.5	1.59915E+000	8.51090E-001	0.00000E+000	1.60125E+000	-1.07321E-004	12	...........	-327.56
	1449	725	1.60810E+000	8.72233E-001	0.00000E+000	1.61025E+000	-1.07521E-004	12	...........	-327.56
	1458	729.5	1.61711E+000	9.03981E-001	0.00000E+000	1.61925E+000	-1.06488E-004	12	...........	-327.56
	1467	734	1.62600E+000	9.37809E-001	0.00000E+000	1.62825E+000	-1.09055E-004	12	...........	-327.56
	1476	738.5	1.63507E+000	9.61845E-001	0.00000E+000	1.63725E+000	-1.09588E-004	12	...........	-327.56
	1485	743	1.64402E+000	9.82486E-001	0.00000E+000	1.64625E+000	-1.08055E-004	12	...........	-327.56
	1494	747.5	1.65292E+000	1.01763E+000	0.00000E+000	1.65525E+000	-1.11055E-004	12	...........	-327.56
	1503	752	1.66194E+000	1.04121E+000	0.00000E+000	1.66425E+000	-1.06821E-004	12	...........	-327.56
	1512	756.5	1.67097E+000	1.07405E+000	0.00000E+000	1.67325E+000	-1.04755E-004	12	...........	-327.56
	1521	761	1.67993E+000	1.09897E+000	0.00000E+000	1.68225E+000	-1.06388E-004	12	...........	-327.56
	1530	765.5	1.68889E+000	1.11686E+000	0.00000E+000	1.69125E+000	-1.08221E-004	12	...........	-327.56
	1539	770	1.69791E+000	1.15153E+000	0.00000E+000	1.70025E+000	-1.07921E-004	12	...........	-327.56
	1548	774.5	1.68890E+000	1.12576E+000	0.00000E+000	1.69125E+000	-1.04988E-004	12	...........	-327.56
	1557	779	1.67992E+000	1.11603E+000	0.00000E+000	1.68225E+000	-1.07455E-004	12	...........	-327.56
	1566	783.5	1.67095E+000	1.10135E+000	0.00000E+000	1.67325E+000	-1.04288E-004	12	...........	-327.56
	1575	788	1.66192E+000	1.07272E+000	0.00000E+000	1.66425E+000	-1.07221E-004	12	...........	-327.56
	1584	792.5	1.65289E+000	1.06271E+000	0.00000E+000	1.65525E+000	-1.08155E-004	12	...........	-327.56
	1593	797	1.64399E+000	1.04528E+000	0.00000E+000	1.64625E+000	-1.03621E-004	12	...........	-327.56
	1602	801.5	1.63502E+000	1.03130E+000	0.00000E+000	1.63725E+000	-1.06821E-004	12	...........	-327.56
	1611	806	1.62596E+000	1.01673E+000	0.00000E+000	1.62825E+000	-1.05588E-004	12	...........	-327.56
	1620	810.5	1.61706E+000	9.88304E-001	0.00000E+000	1.61925E+000	-1.06321E-004	12	...........	-327.56
	1629	815	1.60801E+000	9.69104E-001	0.00000E+000	1.61025E+000	-1.07755E-004	12	...........	-327.56
	1638	819.5	1.59909E+000	9.42263E-001	0.00000E+000	1.60125E+000	-1.05855E-004	12	...........	-327.56
	1647	824	1.59008E+000	9.29107E-001	0.00000E+000	1.59225E+000	-1.08188E-004	12	...........	-327.56
	1656	828.5	1.58108E+000	9.05097E-001	0.00000E+000	1.58325E+000	-1.05821E-004	12	...........	-327.56
	1665	833	1.57215E+000	8.87539E-001	0.00000E+000	1.57425E+000	-1.05855E-004	12	...........	-327.56
	1674	837.5	1.56316E+000	8.62361E-001	0.00000E+000	1.56525E+000	-1.05288E-004	12	...........	-327.56
	1683	842	1.55413E+000	8.46567E-001	0.00000E+000	1.55625E+000	-1.08955E-004	12	...........	-327.56
	1692	846.5	1.54521E+000	8.06533E-001	0.00000E+000	1.54725E+000	-1.07355E-004	12	...........	-327.56
	1701	851	1.53620E+000	8.00361E-001	0.00000E+000	1.53825E+000	-1.07488E-004	12	...........	-327.56
	1710	855.5	1.52721E+000	7.80681E-001	0.00000E+000	1.52925E+000	-1.06421E-004	12	...........	-327.56
	1719	860	1.51831E+000	7.62756E-001	0.00000E+000	1.52025E+000	-1.08821E-004	12	...........	-327.56
	1728	864.5	1.50928E+000	7.42851E-001	0.00000E+000	1.51125E+000	-1.04821E-004	12	...........	-327.56
	1737	869	1.50027E+000	7.08470E-001	0.00000E+000	1.50225E+000	-1.04021E-004	12	...........	-327.56
	1746	873.5	1.49137E+000	6.80609E-001	0.00000E+000	1.49325E+000	-1.05788E-004	12	...........	-327.56
	1755	878	1.48235E+000	6.59093E-001	0.00000E+000	1.48425E+000	-1.05721E-004	12	...........	-327.56
	1764	882.5	1.47339E+000	6.29553E-001	0.00000E+000	1.47525E+000	-1.09721E-004	12	...........	-327.56
	1773	887	1.46444E+000	6.03162E-001	0.00000E+000	1.46625E+000	-1.07821E-004	12	...........	-327.56
	1782	891.5	1.45543E+000	5.75200E-001	0.00000E+000	1.45725E+000	-1.02755E-004	12	...........	-327.56
	1791	896	1.44646E+000	5.66582E-001	0.00000E+000	1.44825E+000	-1.07821E-004	12	...........	-327.56
	1800	900.5	1.43750E+000	5.51203E-001	0.00000E+000	1.43925E+000	-1.04255E-004	12	...........	-327.56
	1809	905	1.42848E+000	5.32469E-001	0.00000E+000	1.43025E+000	-1.09788E-004	12	...........	-327.56
	1818	909.5	1.41955E+000	5.18018E-001	0.00000E+000	1.42125E+000	-1.08121E-004	12	...........	-327.56
	1827	914	1.41056E+000	4.98139E-001	0.00000E+000	1.41225E+000	-1.11855E-004	12	...........	-327.56
	1836	918.5	1.40154E+000	4.78784E-001	0.00000E+000	1.40325E+000	-1.05755E-004	12	...........	-327.56
	1845	923	1.39262E+000	4.55313E-001	0.00000E+000	1.39425E+000	-1.04021E-004	12	...........	-327.56
	1854	927.5	1.38359E+000	4.40816E-001	0.00000E+000	1.38525E+000	-1.07155E-004	12	...........	-327.56
	1863	932	1.37460E+000	4.23666E-001	0.00000E+000	1.37625E+000	-1.10221E-004	12	...........	-327.56
	1872	936.5	1.36565E+000	4.00197E-001	0.00000E+000	1.36725E+000	-1.06555E-004	12	...........	-327.56
	1881	941	1.35667E+000	3.78166E-001	0.00000E+000	1.35825E+000	-1.07721E-004	12	...........	-327.56
	1890	945.5	1.34762E+000	3.60271E-001	0.00000E+000	1.34925E+000	-1.07955E-004	12	...........	-327.56
	1899	950	1.33870E+000	3.38923E-001	0.00000E+000	1.34025E+000	-1.08121E-004	12	...........	-327.56
	1908	954.5	1.32975E+000	3.16082E-001	0.00000E+000	1.33125E+000	-1.04321E-004	12	...........	-327.56
	1917	959	1.32072E+000	2.89517E-001	0.00000E+000	1.32225E+000	-1.08121E-004	12	...........	-327.56
	1926	963.5	1.31184E+000	2.64131E-001	0.00000E+000	1.31325E+000	-1.01988E-004	12	...........	-327.56
	1935	968	1.30278E+000	2.51054E-001	0.00000E+000	1.30425E+000	-1.03155E-004	12	...........	-327.56
	1944	972.5	1.29376E+000	2.40210E-001	0.00000E+000	1.29525E+000	-1.07321E-004	12	...........	-327.56
	1953	977	1.28465E+000	2.24315E-001	0.00000E+000	1.28625E+000	-1.02788E-004	11	...........	-327.56
	1962	981.5	1.27561E+000	2.08488E-001	0.00000E+000	1.27725E+000	-1.00055E-004	11	...........	-327.56
	1971	986	1.26667E+000	1.92545E-001	0.00000E+000	1.26825E+000	-1.06055E-004	11	...........	-327.56
	1980	990.5	1.25774E+000	1.66415E-001	0.00000E+000	1.25925E+000	-1.05588E-004	11	...........	-327.56
	1989	995	1.24871E+000	1.48093E-001	0.00000E+000	1.25025E+000	-1.03688E-004	11	...........	-327.56
	1998	999.5	1.23981E+000	1.37923E-001	0.00000E+000	1.24125E+000	-1.03988E-004	11	...........	-327.56
	2007	1004	1.23081E+000	1.23376E-001	0.00000E+000	1.23225E+000	-1.02921E-004	11	...........	-327.56
	2016	1008.5	1.22180E+000	1.11422E-001	0.00000E+000	1.22325E+000	-1.04655E-004	11	...........	-327.56
	2025	1013	1.21284E+000	1.06692E-001	0.00000E+000	1.21425E+000	-1.06321E-004	11	...........	-327.56
	2034	1017.5	1.20385E+000	9.78064E-002	0.00000E+000	1.20525E+000	-1.05255E-004	11	...........	-327.56
	2043	1022	1.19482E+000	8.88096E-002	0.00000E+000	1.19625E+000	-1.08021E-004	11	...........	-327.56
	2052	1026.5	1.18593E+000	8.07560E-002	0.00000E+000	1.18725E+000	-1.07455E-004	11	...........	-327.56
	2061	1031	1.17691E+000	7.14143E-002	0.00000E+000	1.17825E+000	-1.09488E-004	11	...........	-327.56
	2070	1035.5	1.16793E+000	6.38848E-002	0.00000E+000	1.16925E+000	-1.06655E-004	11	...........	-327.56
	2079	1040	1.15898E+000	5.86805E-002	0.00000E+000	1.16025E+000	-1.02921E-004	11	...........	-327.56
	2088	1044.5	1.14993E+000	5.29266E-002	0.00000E+000	1.15125E+000	-1.05121E-004	11	...........	-327.56
	2097	1049	1.14091E+000	4.55827E-002	0.00000E+000	1.14225E+000	-1.06555E-004	11	...........	-327.56
	2106	1053.5	1.13201E+000	4.24081E-002	0.00000E+000	1.13325E+000	-1.07655E-004	11	...........	-327.56
	2115	1058	1.12308E+000	3.80806E-002	0.00000E+000	1.12425E+000	-1.05355E-004	11	...........	-327.56
	2124	1062.5	1.11400E+000	3.42037E-002	0.00000E+000	1.11525E+000	-1.06921E-004	11	...........	-327.56
	2133	1067	1.10509E+000	3.06168E-002	0.00000E+000	1.10625E+000	-1.04788E-004	11	...........	-327.56
	2142	1071.5	1.09607E+000	2.74605E-002	0.00000E+000	1.09725E+000	-1.04688E-004	11	...........	-327.56
	2151	1076	1.08712E+000	2.47592E-002	0.00000E+000	1.08825E+000	-1.06588E-004	11	...........	-327.56
	2160	1080.5	1.07787E+000	2.19346E-002	0.00000E+000	1.07925E+000	-1.02055E-004	10	...........	-327.56
	2169	1085	1.06886E+000	2.01460E-002	0.00000E+000	1.07025E+000	-1.03088E-004	10	...........	-327.56
	2178	1089.5	1.05995E+000	1.88321E-002	0.00000E+000	1.06125E+000	-1.01421E-004	10	...........	-327.56
	2187	1094	1.05096E+000	1.76097E-002	0.00000E+000	1.05225E+000	-1.04055E-004	10	...........	-327.56
	2196	1098.5	1.04192E+000	1.67000E-002	0.00000E+000	1.04325E+000	-1.04755E-004	10	...........	-327.56
	2205	1103	1.03299E+000	1.59509E-002	0.00000E+000	1.03425E+000	-1.01288E-004	10	...........	-327.56
	2214	1107.5	1.02397E+000	1.51167E-002	0.00000E+000	1.02525E+000	-1.04955E-004	10	...........	-327.56
	2223	1112	1.01498E+000	1.48324E-002	0.00000E+000	1.01625E+000	-1.02221E-004	10	...........	-327.56
	2232	1116.5	1.00605E+000	1.43711E-002	0.00000E+000	1.00725E+000	-1.04188E-004	10	...........	-327.56
	2241	1121	9.97029E-001	1.41628E-002	0.00000E+000	9.98250E-001	-1.01521E-004	10	...........	-327.56
	2250	1125.5	9.87984E-001	1.36639E-002	0.00000E+000	9.89250E-001	-1.04955E-004	10	...........	-327.56
	2259	1130	9.79090E-001	1.37324E-002	0.00000E+000	9.80250E-001	-1.02455E-004	10	...........	-327.56
	2268	1134.5	9.70039E-001	1.35536E-002	0.00000E+000	9.71250E-001	-1.03188E-004	10	...........	-327.56
	2277	1139	9.60993E-001	1.33695E-002	0.00000E+000	9.62250E-001	-1.08988E-004	10	...........	-327.56
	2286	1143.5	9.52116E-001	1.32259E-002	0.00000E+000	9.53250E-001	-1.07821E-004	10	...........	-327.56
	2295	1148	9.43057E-001	1.28709E-002	0.00000E+000	9.44250E-001	-1.05755E-004	10	...........	-327.56
	2304	1152.5	9.34110E-001	1.29081E-002	0.00000E+000	9.35250E-001	-1.05921E-004	10	...........	-327.56
	2313	1157	9.25117E-001	1.27653E-002	0.00000E+000	9.26250E-001	-1.03755E-004	10	...........	-327.56
	2322	1161.5	9.16123E-001	1.26452E-002	0.00000E+000	9.17250E-001	-1.04755E-004	10	...........	-327.56
	2331	1166	9.07184E-001	1.24908E-002	0.00000E+000	9.08250E-001	-1.07955E-004	10	...........	-327.56
	2340	1170.5	8.98169E-001	1.23875E-002	0.00000E+000	8.99250E-001	-1.04821E-004	10	...........	-327.56
	2349	1175	8.89132E-001	1.22788E-002	0.00000E+000	8.90250E-001	-1.05321E-004	10	...........	-327.56
	2358	1179.5	8.80222E-001	1.22267E-002	0.00000E+000	8.81250E-001	-1.08188E-004	10	...........	-327.56
	2367	1184	8.71174E-001	1.20197E-002	0.00000E+000	8.72250E-001	-1.03621E-004	10	...........	-327.56
	2376	1188.5	8.62225E-001	1.17472E-002	0.00000E+000	8.63250E-001	-1.05921E-004	10	...........	-327.56
	2385	1193	8.53232E-001	1.17535E-002	0.00000E+000	8.54250E-001	-1.02688E-004	10	...........	-327.56
	2394	1197.5	8.44193E-001	1.16454E-002	0.00000E+000	8.45250E-001	-1.01988E-004	10	...........	-327.56
	2403	1202	8.35164E-001	1.16587E-002	0.00000E+000	8.36250E-001	-1.07021E-004	10	...........	-327.56
	2412	1206.5	8.26256E-001	1.15567E-002	0.00000E+000	8.27250E-001	-1.01755E-004	10	...........	-327.56
	2421	1211	8.17253E-001	1.17239E-002	0.00000E+000	8.18250E-001	-1.06921E-004	10	...........	-327.56
	2430	1215.5	8.08205E-001	1.19714E-002	0.00000E+000	8.09250E-001	-1.08155E-004	10	...........	-327.56
	2439	1220	7.99302E-001	1.18667E-002	0.00000E+000	8.00250E-001	-1.10088E-004	10	...........	-327.56
	2448	1224.5	7.90298E-001	1.22111E-002	0.00000E+000	7.91250E-001	-1.07088E-004	10	...........	-327.56
	2457	1229	7.81207E-001	1.21527E-002	0.00000E+000	7.82250E-001	-1.03655E-004	10	...........	-327.56
	2466	1233.5	7.72297E-001	1.21738E-002	0.00000E+000	7.73250E-001	-1.05788E-004	10	...........	-327.56
	2475	1238	7.63278E-001	1.22092E-002	0.00000E+000	7.64250E-001	-1.07588E-004	10	...........	-327.56
	2484	1242.5	7.54320E-001	1.21831E-002	0.00000E+000	7.55250E-001	-1.03988E-004	10	...........	-327.56
	2493	1247	7.45334E-001	1.21208E-002	0.00000E+000	7.46250E-001	-1.06655E-004	10	...........	-327.56
	2502	1251.5	7.36292E-001	1.21620E-002	0.00000E+000	7.37250E-001	-1.04688E-004	10	...........	-327.56
	2511	1256	7.27336E-001	1.21109E-002	0.00000E+000	7.28250E-001	-1.05621E-004	10	...........	-327.56
	2520	1260.5	7.18338E-001	1.19572E-002	0.00000E+000	7.19250E-001	-1.10955E-004	10	...........	-327.56
	2529	1265	7.09344E-001	1.19012E-002	0.00000E+000	7.10250E-001	-1.07355E-004	10	...........	-327.56
	2538	1269.5	7.00410E-001	1.15107E-002	0.00000E+000	7.01250E-001	-1.05088E-004	10	...........	-327.56
	2547	1274	6.91381E-001	1.13315E-002	0.00000E+000	6.92250E-001	-1.10055E-004	10	...........	-327.56
	2556	1278.5	6.82350E-001	1.11091E-002	0.00000E+000	6.83250E-001	-1.04855E-004	10	...........	-327.56
	2565	1283	6.73453E-001	1.10292E-002	0.00000E+000	6.74250E-001	-1.04255E-004	10	...........	-327.56
	2574	1287.5	6.64398E-001	1.08118E-002	0.00000E+000	6.65250E-001	-1.05388E-004	10	...........	-327.56
	2583	1292	6.55375E-001	1.10564E-002	0.00000E+000	6.56250E-001	-1.05688E-004	10	...........	-327.56
	2592	1296.5	6.46453E-001	1.08234E-002	0.00000E+000	6.47250E-001	-1.05655E-004	10	...........	-327.56
	2601	1301	6.37419E-001	1.08201E-002	0.00000E+000	6.38250E-001	-1.06721E-004	10	...........	-327.56
	2610	1305.5	6.28380E-001	1.07736E-002	0.00000E+000	6.29250E-001	-1.08355E-004	10	...........	-327.56
	2619	1310	6.19484E-001	1.05243E-002	0.00000E+000	6.20250E-001	-1.03321E-004	10	...........	-327.56
	2628	1314.5	6.10441E-001	1.05288E-002	0.00000E+000	6.11250E-001	-1.10055E-004	10	...........	-327.56
	2637	1319	6.01505E-001	1.02835E-002	0.00000E+000	6.02250E-001	-1.07455E-004	10	...........	-327.56
	2646	1323.5	5.92511E-001	9.93035E-003	0.00000E+000	5.93250E-001	-1.05855E-004	10	...........	-327.56
	2655	1328	5.83464E-001	9.84033E-003	0.00000E+000	5.84250E-001	-1.08055E-004	10	...........	-327.56
	2664	1332.5	5.74545E-001	9.87757E-003	0.00000E+000	5.75250E-001	-1.07321E-004	10	...........	-327.56
	2673	1337	5.65531E-001	9.63698E-003	0.00000E+000	5.66250E-001	-1.03888E-004	10	...........	-327.56
	2682	1341.5	5.56500E-001	9.81451E-003	0.00000E+000	5.57250E-001	-1.06155E-004	10	...........	-327.56
	2691	1346	5.47564E-001	9.28183E-003	0.00000E+000	5.48250E-001	-1.05855E-004	10	...........	-327.56
	2700	1350.5	5.38534E-001	9.00345E-003	0.00000E+000	5.39250E-001	-1.06321E-004	10	...........	-327.56
	2709	1355	5.29536E-001	8.97947E-003	0.00000E+000	5.30250E-001	-1.05621E-004	10	...........	-327.56
	2718	1359.5	5.20580E-001	9.01773E-003	0.00000E+000	5.21250E-001	-1.04055E-004	10	...........	-327.56
	2727	1364	5.11579E-001	8.80990E-003	0.00000E+000	5.12250E-001	-1.06121E-004	10	...........	-327.56
	2736	1368.5	5.02557E-001	8.54070E-003	0.00000E+000	5.03250E-001	-1.09555E-004	10	...........	-327.56
	2745	1373	4.93632E-001	8.27079E-003	0.00000E+000	4.94250E-001	-1.04621E-004	10	...........	-327.56
	2754	1377.5	4.84653E-001	7.68432E-003	0.00000E+000	4.85250E-001	-1.08655E-004	10	...........	-327.56
	2763	1382	4.75576E-001	7.57738E-003	0.00000E+000	4.76250E-001	-1.08355E-004	10	...........	-327.56
	2772	1386.5	4.66664E-001	7.54506E-003	0.00000E+000	4.67250E-001	-1.05055E-004	10	...........	-327.56
	2781	1391	4.57630E-001	7.26966E-003	0.00000E+000	4.58250E-001	-1.05888E-004	10	...........	-327.56
	2790	1395.5	4.48606E-001	6.44172E-003	0.00000E+000	4.49250E-001	-1.06855E-004	10	...........	-327.56
	2799	1400	4.39707E-001	6.39446E-003	0.00000E+000	4.40250E-001	-1.05655E-004	10	...........	-327.56
	2808	1404.5	4.30667E-001	5.84724E-003	0.00000E+000	4.31250E-001	-1.07321E-004	10	...........	-327.56
	2817	1409	4.21695E-001	6.36306E-003	0.00000E+000	4.22250E-001	-1.10588E-004	10	...........	-327.56
	2826	1413.5	4.12721E-001	5.84929E-003	0.00000E+000	4.13250E-001	-1.06788E-004	10	...........	-327.56
	2835	1418	4.03674E-001	5.71211E-003	0.00000E+000	4.04250E-001	-1.02421E-004	10	...........	-327.56
	2844	1422.5	3.94720E-001	5.39949E-003	0.00000E+000	3.95250E-001	-1.09021E-004	10	...........	-327.56
	2853	1427	3.85760E-001	3.86043E-003	0.00000E+000	3.86250E-001	-1.08755E-004	10	...........	-327.56
	2862	1431.5	3.76697E-001	4.51767E-003	0.00000E+000	3.77250E-001	-1.04655E-004	10	...........	-327.56
	2871	1436	3.67807E-001	2.75546E-003	0.00000E+000	3.68250E-001	-1.07455E-004	10	...........	-327.56
	2880	1440.5	3.58755E-001	3.08852E-003	0.00000E+000	3.59250E-001	-1.06655E-004	10	...........	-327.56
	2889	1445	3.49735E-001	3.23365E-003	0.00000E+000	3.50250E-001	-1.10055E-004	10	...........	-327.56
	2898	1449.5	3.40793E-001	3.18216E-003	0.00000E+000	3.41250E-001	-1.09721E-004	10	...........	-327.56
	2907	1454	3.31772E-001	2.71483E-003	0.00000E+000	3.32250E-001	-1.09588E-004	10	...........	-327.56
	2916	1458.5	3.22671E-001	7.48080E-004	0.00000E+000	3.23250E-001	-1.04855E-004	9	...........	-327.56
	2925	1463	3.13736E-001	9.64868E-004	0.00000E+000	3.14250E-001	-1.08855E-004	9	...........	-327.56
	2934	1467.5	3.04745E-001	8.76424E-005	0.00000E+000	3.05250E-001	-1.04588E-004	8	...........	-327.56
	2943	1472	2.96635E-001	-3.27695E-005	0.00000E+000	2.96250E-001	-9.88214E-005	7	....ih..i..	-327.56
	2952	1476.5	2.87191E-001	-2.16344E-003	0.00000E+000	2.87250E-001	-1.01621E-004	9	...........	-327.56
	2961	1481	2.77946E-001	-6.94346E-004	0.00000E+000	2.78250E-001	-1.05388E-004	9	...........	-327.56
	2970	1485.5	2.68946E-001	-4.92369E-005	0.00000E+000	2.69250E-001	-1.06155E-004	8	...........	-327.56
	2979	1490	2.59964E-001	-3.90414E-007	0.00000E+000	2.60250E-001	-1.07755E-004	6	...........	-327.56
	2988	1494.5	2.50949E-001	-2.57428E-004	0.00000E+000	2.51250E-001	-1.09821E-004	9	...........	-327.56
	2997	1499	2.42071E-001	-9.23268E-004	0.00000E+000	2.42250E-001	-1.07488E-004	9	...........	-327.56
	3006	1503.5	2.33073E-001	-1.08613E-004	0.00000E+000	2.33250E-001	-1.04155E-004	8	...........	-327.56
	3015	1508	2.24007E-001	-7.64676E-005	0.00000E+000	2.24250E-001	-1.06188E-004	8	...........	-327.56
	3024	1512.5	2.15158E-001	-1.61147E-003	0.00000E+000	2.15250E-001	-1.01155E-004	9	...........	-327.56
	3033	1517	2.06239E-001	-2.12505E-003	0.00000E+000	2.06250E-001	-1.00921E-004	9	...........	-327.56
	3042	1521.5	1.97091E-001	-1.28349E-003	0.00000E+000	1.97250E-001	-1.06155E-004	9	...........	-327.56
	3051	1526	1.88191E-001	-1.54182E-003	0.00000E+000	1.88250E-001	-1.08021E-004	9	...........	-327.56
	3060	1530.5	1.79144E-001	-1.43155E-003	0.00000E+000	1.79250E-001	-1.10288E-004	9	...........	-327.56
	3069	1535	1.70153E-001	-1.71835E-003	0.00000E+000	1.70250E-001	-1.04688E-004	9	...........	-327.56
	3078	1539.5	1.61271E-001	-2.11117E-003	0.00000E+000	1.61250E-001	-1.04921E-004	9	...........	-327.56
	3087	1544	1.52306E-001	-2.52402E-003	0.00000E+000	1.52250E-001	-9.81881E-005	9	...........	-327.56
	3096	1548.5	1.42990E-001	-2.94535E-003	0.00000E+000	1.43250E-001	-1.07255E-004	10	...........	-327.56
	3105	1553	1.34081E-001	-3.49047E-003	0.00000E+000	1.34250E-001	-1.07655E-004	10	...........	-327.56
	3114	1557.5	1.25054E-001	-4.14331E-003	0.00000E+000	1.25250E-001	-1.08721E-004	10	...........	-327.56
	3123	1562	1.16003E-001	-4.55304E-003	0.00000E+000	1.16250E-001	-1.07188E-004	10	...........	-327.56
	3132	1566.5	1.07111E-001	-4.73013E-003	0.00000E+000	1.07250E-001	-1.09755E-004	10	...........	-327.56
	3141	1571	9.81306E-002	-4.97910E-003	0.00000E+000	9.82500E-002	-1.06321E-004	10	...........	-327.56
	3150	1575.5	8.91580E-002	-5.30864E-003	0.00000E+000	8.92500E-002	-1.05888E-004	10	...........	-327.56
	3159	1580	8.01868E-002	-5.55620E-003	0.00000E+000	8.02500E-002	-1.08588E-004	10	...........	-327.56
	3168	1584.5	7.11339E-002	-5.84521E-003	0.00000E+000	7.12500E-002	-1.02355E-004	10	...........	-327.56
	3177	1589	6.22153E-002	-6.07657E-003	0.00000E+000	6.22500E-002	-1.07755E-004	10	...........	-327.56
	3186	1593.5	5.31886E-002	-6.27044E-003	0.00000E+000	5.32500E-002	-1.05455E-004	10	...........	-327.56
	3195	1598	4.41743E-002	-6.53790E-003	0.00000E+000	4.42500E-002	-1.08555E-004	10	...........	-327.56
	3204	1602.5	3.52336E-002	-6.66536E-003	0.00000E+000	3.52500E-002	-1.07955E-004	10	...........	-327.56
	3213	1607	2.62022E-002	-6.79322E-003	0.00000E+000	2.62500E-002	-1.05688E-004	10	...........	-327.56
	3222	1611.5	1.71691E-002	-6.91587E-003	0.00000E+000	1.72500E-002	-1.06788E-004	10	...........	-327.56
	3231	1616	8.25334E-003	-7.01228E-003	0.00000E+000	8.25003E-003	-1.06355E-004	10	...........	-327.56
	3240	1620.5	-5.69213E-004	-7.21309E-003	0.00000E+000	-7.49975E-004	-1.07188E-004	10	...........	-327.56
	3249	1625	-9.63500E-003	-7.26351E-003	0.00000E+000	-9.74998E-003	-1.10788E-004	10	...........	-327.56
	3258	1629.5	-1.85220E-002	-7.38402E-003	0.00000E+000	-1.87500E-002	-1.04888E-004	10	...........	-327.56
	3267	1634	-2.75709E-002	-7.49803E-003	0.00000E+000	-2.77500E-002	-1.08655E-004	10	...........	-327.56
	3276	1638.5	-3.66001E-002	-7.69364E-003	0.00000E+000	-3.67500E-002	-1.07921E-004	10	...........	-327.56
	3285	1643	-4.55101E-002	-7.84531E-003	0.00000E+000	-4.57500E-002	-1.11821E-004	10	...........	-327.56
	3294	1647.5	-5.44949E-002	-8.14969E-003	0.00000E+000	-5.47500E-002	-1.07488E-004	10	...........	-327.56
	3303	1652	-6.35843E-002	-8.47045E-003	0.00000E+000	-6.37500E-002	-1.05655E-004	10	...........	-327.56
	3312	1656.5	-7.24986E-002	-8.59513E-003	0.00000E+000	-7.27500E-002	-1.01821E-004	10	...........	-327.56
	3321	1661	-8.15221E-002	-8.76981E-003	0.00000E+000	-8.17500E-002	-1.09021E-004	10	...........	-327.56
	3330	1665.5	-9.04854E-002	-8.82171E-003	0.00000E+000	-9.07500E-002	-1.05388E-004	10	...........	-327.56
	3339	1670	-9.94625E-002	-8.85353E-003	0.00000E+000	-9.97500E-002	-1.09321E-004	10	...........	-327.56
[...]
	11584	5792.5	5.44265E-001	1.04089E-001	0.00000E+000	5.45000E-001	-1.05921E-004	11	...........	-327.56
	11590	5795.5	5.50265E-001	1.00060E-001	0.00000E+000	5.51000E-001	-1.05955E-004	11	...........	-327.56
	11596	5798.5	5.56204E-001	1.00356E-001	0.00000E+000	5.57000E-001	-1.08988E-004	11	...........	-327.56
	11602	5801.5	5.62224E-001	9.68396E-002	0.00000E+000	5.63000E-001	-1.07188E-004	11	...........	-327.56
	11608	5804.5	5.68272E-001	9.24878E-002	0.00000E+000	5.69000E-001	-1.09188E-004	11	...........	-327.56
	11614	5807.5	5.74268E-001	9.17431E-002	0.00000E+000	5.75000E-001	-1.09355E-004	11	...........	-327.56
	11620	5810.5	5.80194E-001	9.14494E-002	0.00000E+000	5.81000E-001	-1.09588E-004	11	...........	-327.56
	11626	5813.5	5.86210E-001	8.74886E-002	0.00000E+000	5.87000E-001	-1.10021E-004	11	...........	-327.56
	11632	5816.5	5.92250E-001	8.74878E-002	0.00000E+000	5.93000E-001	-1.08488E-004	11	...........	-327.56
	11638	5819.5	5.98279E-001	8.17412E-002	0.00000E+000	5.99000E-001	-1.09255E-004	11	...........	-327.56
	11644	5822.5	6.04193E-001	7.72541E-002	0.00000E+000	6.05000E-001	-1.10321E-004	11	...........	-327.56
	11650	5825.5	6.10210E-001	7.76283E-002	0.00000E+000	6.11000E-001	-1.08321E-004	11	...........	-327.56
	11656	5828.5	6.16226E-001	7.33180E-002	0.00000E+000	6.17000E-001	-1.10621E-004	11	...........	-327.56
	11662	5831.5	6.22268E-001	7.22592E-002	0.00000E+000	6.23000E-001	-1.09388E-004	11	...........	-327.56
	11668	5834.5	6.28148E-001	7.07101E-002	0.00000E+000	6.29000E-001	-1.11988E-004	11	...........	-327.56
	11674	5837.5	6.34193E-001	6.83262E-002	0.00000E+000	6.35000E-001	-1.07088E-004	11	...........	-327.56
	11680	5840.5	6.40205E-001	6.73957E-002	0.00000E+000	6.41000E-001	-1.12355E-004	11	...........	-327.56
	11686	5843.5	6.46262E-001	6.60878E-002	0.00000E+000	6.47000E-001	-1.10021E-004	11	...........	-327.56
	11692	5846.5	6.52213E-001	6.50620E-002	0.00000E+000	6.53000E-001	-1.09488E-004	11	...........	-327.56
	11698	5849.5	6.58188E-001	6.31312E-002	0.00000E+000	6.59000E-001	-1.11755E-004	11	...........	-327.56
	11704	5852.5	6.64207E-001	6.23517E-002	0.00000E+000	6.65000E-001	-1.11288E-004	11	...........	-327.56
	11710	5855.5	6.70255E-001	6.01500E-002	0.00000E+000	6.71000E-001	-1.09888E-004	11	...........	-327.56
	11716	5858.5	6.76221E-001	5.85668E-002	0.00000E+000	6.77000E-001	-1.09421E-004	11	...........	-327.56
	11722	5861.5	6.82167E-001	5.53270E-002	0.00000E+000	6.83000E-001	-1.08821E-004	11	...........	-327.56
	11728	5864.5	6.88199E-001	5.47153E-002	0.00000E+000	6.89000E-001	-1.09988E-004	11	...........	-327.56
	11734	5867.5	6.94250E-001	5.44088E-002	0.00000E+000	6.95000E-001	-1.08988E-004	11	...........	-327.56
	11740	5870.5	7.00222E-001	5.43614E-002	0.00000E+000	7.01000E-001	-1.14688E-004	11	...........	-327.56
	11746	5873.5	7.06142E-001	5.43450E-002	0.00000E+000	7.07000E-001	-1.08755E-004	11	...........	-327.56
	11752	5876.5	7.12179E-001	5.33744E-002	0.00000E+000	7.13000E-001	-1.11421E-004	11	...........	-327.56
	11758	5879.5	7.18182E-001	5.30095E-002	0.00000E+000	7.19000E-001	-1.10021E-004	11	...........	-327.56
	11764	5882.5	7.24172E-001	5.22398E-002	0.00000E+000	7.25000E-001	-1.10721E-004	11	...........	-327.56
	11770	5885.5	7.30073E-001	5.28232E-002	0.00000E+000	7.31000E-001	-1.11255E-004	11	...........	-327.56
	11776	5888.5	7.36116E-001	5.19130E-002	0.00000E+000	7.37000E-001	-1.13021E-004	11	...........	-327.56
	11782	5891.5	7.42131E-001	5.10112E-002	0.00000E+000	7.43000E-001	-1.11088E-004	11	...........	-327.56
	11788	5894.5	7.48162E-001	5.03082E-002	0.00000E+000	7.49000E-001	-1.10755E-004	11	...........	-327.56
	11794	5897.5	7.54166E-001	5.05486E-002	0.00000E+000	7.55000E-001	-1.09821E-004	11	...........	-327.56
	11800	5900.5	7.60076E-001	5.06188E-002	0.00000E+000	7.61000E-001	-1.09288E-004	11	...........	-327.56
	11806	5903.5	7.66130E-001	5.07705E-002	0.00000E+000	7.67000E-001	-1.09821E-004	11	...........	-327.56
	11812	5906.5	7.72128E-001	5.06437E-002	0.00000E+000	7.73000E-001	-1.13221E-004	11	...........	-327.56
	11818	5909.5	7.78136E-001	5.00336E-002	0.00000E+000	7.79000E-001	-1.06988E-004	11	...........	-327.56
	11824	5912.5	7.84049E-001	4.89584E-002	0.00000E+000	7.85000E-001	-1.11488E-004	11	...........	-327.56
	11830	5915.5	7.90090E-001	4.97214E-002	0.00000E+000	7.91000E-001	-1.10155E-004	11	...........	-327.56
	11836	5918.5	7.96127E-001	4.90789E-002	0.00000E+000	7.97000E-001	-1.12888E-004	11	...........	-327.56
	11842	5921.5	8.02145E-001	4.84453E-002	0.00000E+000	8.03000E-001	-1.12088E-004	11	...........	-327.56
	11848	5924.5	8.07997E-001	4.89144E-002	0.00000E+000	8.09000E-001	-1.10255E-004	11	...........	-327.56
	11854	5927.5	8.14083E-001	4.87168E-002	0.00000E+000	8.15000E-001	-1.11021E-004	11	...........	-327.56
	11860	5930.5	8.20027E-001	4.82350E-002	0.00000E+000	8.21000E-001	-1.09121E-004	11	...........	-327.56
	11866	5933.5	8.26079E-001	4.78841E-002	0.00000E+000	8.27000E-001	-1.10621E-004	11	...........	-327.56
	11872	5936.5	8.32051E-001	4.81877E-002	0.00000E+000	8.33000E-001	-1.11188E-004	11	...........	-327.56
	11878	5939.5	8.37995E-001	4.79859E-002	0.00000E+000	8.39000E-001	-1.08255E-004	11	...........	-327.56
	11884	5942.5	8.44025E-001	4.75027E-002	0.00000E+000	8.45000E-001	-1.10988E-004	11	...........	-327.56
	11890	5945.5	8.50059E-001	4.73754E-002	0.00000E+000	8.51000E-001	-1.10521E-004	11	...........	-327.56
	11896	5948.5	8.56067E-001	4.66463E-002	0.00000E+000	8.57000E-001	-1.13155E-004	11	...........	-327.56
	11902	5951.5	8.61984E-001	4.65695E-002	0.00000E+000	8.63000E-001	-1.12221E-004	11	...........	-327.56
	11908	5954.5	8.68008E-001	4.64741E-002	0.00000E+000	8.69000E-001	-1.09521E-004	11	...........	-327.56
	11914	5957.5	8.74026E-001	4.65407E-002	0.00000E+000	8.75000E-001	-1.10688E-004	11	...........	-327.56
	11920	5960.5	8.80034E-001	4.60631E-002	0.00000E+000	8.81000E-001	-1.10288E-004	11	...........	-327.56
	11926	5963.5	8.85960E-001	4.59346E-002	0.00000E+000	8.87000E-001	-1.09021E-004	11	...........	-327.56
	11932	5966.5	8.91972E-001	4.58154E-002	0.00000E+000	8.93000E-001	-1.11555E-004	11	...........	-327.56
	11938	5969.5	8.98014E-001	4.53413E-002	0.00000E+000	8.99000E-001	-1.10155E-004	11	...........	-327.56
	11944	5972.5	9.04026E-001	4.50844E-002	0.00000E+000	9.05000E-001	-1.09588E-004	11	...........	-327.56
	11950	5975.5	9.09943E-001	4.47397E-002	0.00000E+000	9.11000E-001	-1.13188E-004	11	...........	-327.56
	11956	5978.5	9.15961E-001	4.43270E-002	0.00000E+000	9.17000E-001	-1.08021E-004	11	...........	-327.56
	11962	5981.5	9.21951E-001	4.37902E-002	0.00000E+000	9.23000E-001	-1.10988E-004	11	...........	-327.56
	11968	5984.5	9.27970E-001	4.37666E-002	0.00000E+000	9.29000E-001	-1.09921E-004	11	...........	-327.56
	11974	5987.5	9.33956E-001	4.34619E-002	0.00000E+000	9.35000E-001	-1.10721E-004	11	...........	-327.56
	11980	5990.5	9.39904E-001	4.32404E-002	0.00000E+000	9.41000E-001	-1.07721E-004	11	...........	-327.56
	11986	5993.5	9.45921E-001	4.26192E-002	0.00000E+000	9.47000E-001	-1.11388E-004	11	...........	-327.56
	11992	5996.5	9.51953E-001	4.22042E-002	0.00000E+000	9.53000E-001	-1.12455E-004	11	...........	-327.56
	11998	5999.5	9.57937E-001	4.18256E-002	0.00000E+000	9.59000E-001	-1.11355E-004	11	...........	-327.56
	12004	6002.5	9.63893E-001	4.12551E-002	0.00000E+000	9.65000E-001	-1.06455E-004	11	...........	-327.56
	12010	6005.5	9.69915E-001	4.11128E-002	0.00000E+000	9.71000E-001	-1.09155E-004	11	...........	-327.56
	12016	6008.5	9.75944E-001	4.09477E-002	0.00000E+000	9.77000E-001	-1.08188E-004	11	...........	-327.56
	12022	6011.5	9.81932E-001	4.07322E-002	0.00000E+000	9.83000E-001	-1.12488E-004	11	...........	-327.56
	12028	6014.5	9.87854E-001	4.69031E-002	0.00000E+000	9.89000E-001	-1.10988E-004	11	...........	-327.56
	12034	6017.5	9.93890E-001	4.03847E-002	0.00000E+000	9.95000E-001	-1.10321E-004	11	...........	-327.56
	12040	6020.5	9.99938E-001	4.01359E-002	0.00000E+000	1.00100E+000	-1.11621E-004	11	...........	-327.56
	12046	6023.5	1.00593E+000	4.03645E-002	0.00000E+000	1.00700E+000	-1.07655E-004	11	...........	-327.56
	12052	6026.5	1.01183E+000	4.09850E-002	0.00000E+000	1.01300E+000	-1.08455E-004	11	...........	-327.56
	12058	6029.5	1.01787E+000	4.12796E-002	0.00000E+000	1.01900E+000	-1.06655E-004	11	...........	-327.56
	12064	6032.5	1.02391E+000	4.18428E-002	0.00000E+000	1.02500E+000	-1.11888E-004	11	...........	-327.56
	12070	6035.5	1.02988E+000	4.25889E-002	0.00000E+000	1.03100E+000	-1.09455E-004	11	...........	-327.56
	12076	6038.5	1.03589E+000	4.39352E-002	0.00000E+000	1.03700E+000	-1.08721E-004	11	...........	-327.56
	12082	6041.5	1.04183E+000	4.52634E-002	0.00000E+000	1.04300E+000	-1.10288E-004	11	...........	-327.56
	12088	6044.5	1.04789E+000	4.60434E-002	0.00000E+000	1.04900E+000	-1.07088E-004	11	...........	-327.56
	12094	6047.5	1.05386E+000	4.68063E-002	0.00000E+000	1.05500E+000	-1.10188E-004	11	...........	-327.56
	12100	6050.5	1.05988E+000	4.83319E-002	0.00000E+000	1.06100E+000	-1.07721E-004	11	...........	-327.56
	12106	6053.5	1.06580E+000	4.78209E-002	0.00000E+000	1.06700E+000	-1.10921E-004	11	...........	-327.56
	12112	6056.5	1.07187E+000	4.83350E-002	0.00000E+000	1.07300E+000	-1.12788E-004	11	...........	-327.56
	12118	6059.5	1.07784E+000	4.92287E-002	0.00000E+000	1.07900E+000	-1.13288E-004	11	...........	-327.56
	12124	6062.5	1.08384E+000	5.04186E-002	0.00000E+000	1.08500E+000	-1.05221E-004	11	...........	-327.56
	12130	6065.5	1.08975E+000	5.13675E-002	0.00000E+000	1.09100E+000	-1.12021E-004	11	...........	-327.56
	12136	6068.5	1.09584E+000	5.19571E-002	0.00000E+000	1.09700E+000	-1.11721E-004	11	...........	-327.56
	12142	6071.5	1.10181E+000	5.31031E-002	0.00000E+000	1.10300E+000	-1.08021E-004	11	...........	-327.56
	12148	6074.5	1.10783E+000	5.44438E-002	0.00000E+000	1.10900E+000	-1.09188E-004	11	...........	-327.56
	12154	6077.5	1.11377E+000	5.50977E-002	0.00000E+000	1.11500E+000	-1.03155E-004	11	...........	-327.56
	12160	6080.5	1.11980E+000	5.59890E-002	0.00000E+000	1.12100E+000	-1.10455E-004	11	...........	-327.56
	12166	6083.5	1.12577E+000	5.64308E-002	0.00000E+000	1.12700E+000	-1.10155E-004	11	...........	-327.56
	12172	6086.5	1.13177E+000	5.70280E-002	0.00000E+000	1.13300E+000	-1.10755E-004	11	...........	-327.56
	12178	6089.5	1.13775E+000	5.71498E-002	0.00000E+000	1.13900E+000	-1.10521E-004	11	...........	-327.56
	12184	6092.5	1.14370E+000	5.71091E-002	0.00000E+000	1.14500E+000	-1.08688E-004	11	...........	-327.56
	12190	6095.5	1.14970E+000	5.68072E-002	0.00000E+000	1.15100E+000	-1.11021E-004	11	...........	-327.56
	12196	6098.5	1.15574E+000	5.59295E-002	0.00000E+000	1.15700E+000	-1.09321E-004	11	...........	-327.56
	12202	6101.5	1.16176E+000	5.50936E-002	0.00000E+000	1.16300E+000	-1.08421E-004	11	...........	-327.56
	12208	6104.5	1.16765E+000	5.42551E-002	0.00000E+000	1.16900E+000	-1.09655E-004	11	...........	-327.56
	12214	6107.5	1.17369E+000	5.28865E-002	0.00000E+000	1.17500E+000	-1.08388E-004	11	...........	-327.56
	12220	6110.5	1.17973E+000	5.17194E-002	0.00000E+000	1.18100E+000	-1.08288E-004	11	...........	-327.56
	12226	6113.5	1.18574E+000	5.04040E-002	0.00000E+000	1.18700E+000	-1.11621E-004	11	...........	-327.56
	12232	6116.5	1.19162E+000	4.91360E-002	0.00000E+000	1.19300E+000	-1.10188E-004	11	...........	-327.56
	12238	6119.5	1.19766E+000	4.78872E-002	0.00000E+000	1.19900E+000	-1.09788E-004	11	...........	-327.56
	12244	6122.5	1.20369E+000	4.69409E-002	0.00000E+000	1.20500E+000	-1.07888E-004	11	...........	-327.56
	12250	6125.5	1.20973E+000	4.64385E-002	0.00000E+000	1.21100E+000	-1.06321E-004	11	...........	-327.56
	12256	6128.5	1.21571E+000	4.65646E-002	0.00000E+000	1.21700E+000	-1.09121E-004	11	...........	-327.56
	12262	6131.5	1.22165E+000	4.73103E-002	0.00000E+000	1.22300E+000	-1.11621E-004	11	...........	-327.56
	12268	6134.5	1.22766E+000	4.91084E-002	0.00000E+000	1.22900E+000	-1.08221E-004	11	...........	-327.56
	12274	6137.5	1.23371E+000	5.15387E-002	0.00000E+000	1.23500E+000	-1.07855E-004	11	...........	-327.56
	12280	6140.5	1.23971E+000	5.42288E-002	0.00000E+000	1.24100E+000	-1.08155E-004	11	...........	-327.56
	12286	6143.5	1.24563E+000	5.76225E-002	0.00000E+000	1.24700E+000	-1.09988E-004	11	...........	-327.56
	12292	6146.5	1.25162E+000	6.19399E-002	0.00000E+000	1.25300E+000	-1.09121E-004	11	...........	-327.56
	12298	6149.5	1.25766E+000	6.72163E-002	0.00000E+000	1.25900E+000	-1.11588E-004	11	...........	-327.56
	12304	6152.5	1.26365E+000	7.25047E-002	0.00000E+000	1.26500E+000	-1.07355E-004	11	...........	-327.56
	12310	6155.5	1.26955E+000	7.95791E-002	0.00000E+000	1.27100E+000	-1.11721E-004	11	...........	-327.56
	12316	6158.5	1.27558E+000	8.50159E-002	0.00000E+000	1.27700E+000	-1.11821E-004	11	...........	-327.56
	12322	6161.5	1.28159E+000	9.46908E-002	0.00000E+000	1.28300E+000	-1.09321E-004	11	...........	-327.56
	12328	6164.5	1.28759E+000	1.01923E-001	0.00000E+000	1.28900E+000	-1.08621E-004	11	...........	-327.56
	12334	6167.5	1.29349E+000	1.05403E-001	0.00000E+000	1.29500E+000	-1.06155E-004	11	...........	-327.56
	12340	6170.5	1.29951E+000	1.13557E-001	0.00000E+000	1.30100E+000	-1.07621E-004	11	...........	-327.56
	12346	6173.5	1.30553E+000	1.21541E-001	0.00000E+000	1.30700E+000	-1.08555E-004	11	...........	-327.56
	12352	6176.5	1.31152E+000	1.30711E-001	0.00000E+000	1.31300E+000	-1.11521E-004	11	...........	-327.56
	12358	6179.5	1.31750E+000	1.43784E-001	0.00000E+000	1.31900E+000	-1.07755E-004	11	...........	-327.56
	12364	6182.5	1.32343E+000	1.50431E-001	0.00000E+000	1.32500E+000	-1.09688E-004	11	...........	-327.56
	12370	6185.5	1.32948E+000	1.59387E-001	0.00000E+000	1.33100E+000	-1.10188E-004	11	...........	-327.56
	12376	6188.5	1.33542E+000	1.67059E-001	0.00000E+000	1.33700E+000	-1.06788E-004	11	...........	-327.56
	12382	6191.5	1.34140E+000	1.77105E-001	0.00000E+000	1.34300E+000	-1.05655E-004	11	...........	-327.56
	12388	6194.5	1.34730E+000	1.85771E-001	0.00000E+000	1.34900E+000	-1.12188E-004	11	...........	-327.56
	12394	6197.5	1.35331E+000	1.95631E-001	0.00000E+000	1.35500E+000	-1.08121E-004	11	...........	-327.56
	12400	6200.5	1.35932E+000	2.06748E-001	0.00000E+000	1.36100E+000	-1.08788E-004	11	...........	-327.56
	12406	6203.5	1.36533E+000	2.19874E-001	0.00000E+000	1.36700E+000	-1.07421E-004	11	...........	-327.56
	12412	6206.5	1.37117E+000	2.31375E-001	0.00000E+000	1.37300E+000	-1.05388E-004	11	...........	-327.56
	12418	6209.5	1.37720E+000	2.41479E-001	0.00000E+000	1.37900E+000	-1.05988E-004	11	...........	-327.56
	12424	6212.5	1.38320E+000	2.53367E-001	0.00000E+000	1.38500E+000	-1.07521E-004	11	...........	-327.56
	12430	6215.5	1.38949E+000	2.68522E-001	0.00000E+000	1.39100E+000	-1.03655E-004	12	...........	-327.56
	12436	6218.5	1.39540E+000	2.80523E-001	0.00000E+000	1.39700E+000	-1.12788E-004	12	...........	-327.56
	12442	6221.5	1.40147E+000	2.92391E-001	0.00000E+000	1.40300E+000	-1.10721E-004	12	...........	-327.56
	12448	6224.5	1.40743E+000	2.96361E-001	0.00000E+000	1.40900E+000	-1.08421E-004	12	...........	-327.56
	12454	6227.5	1.41347E+000	3.05857E-001	0.00000E+000	1.41500E+000	-1.09588E-004	12	...........	-327.56
	12460	6230.5	1.41946E+000	3.15204E-001	0.00000E+000	1.42100E+000	-1.08688E-004	12	...........	-327.56
	12466	6233.5	1.42545E+000	3.29143E-001	0.00000E+000	1.42700E+000	-1.12355E-004	12	...........	-327.56
	12472	6236.5	1.43140E+000	3.42786E-001	0.00000E+000	1.43300E+000	-1.10721E-004	12	...........	-327.56
	12478	6239.5	1.43738E+000	3.57766E-001	0.00000E+000	1.43900E+000	-1.08421E-004	12	...........	-327.56
	12484	6242.5	1.44338E+000	3.70299E-001	0.00000E+000	1.44500E+000	-1.08888E-004	12	...........	-327.56
	12490	6245.5	1.44930E+000	3.82769E-001	0.00000E+000	1.45100E+000	-1.09521E-004	12	...........	-327.56
	12496	6248.5	1.45530E+000	3.95546E-001	0.00000E+000	1.45700E+000	-1.10388E-004	12	...........	-327.56
	12502	6251.5	1.46134E+000	4.07533E-001	0.00000E+000	1.46300E+000	-1.08355E-004	12	...........	-327.56
	12508	6254.5	1.46735E+000	4.15990E-001	0.00000E+000	1.46900E+000	-1.10688E-004	12	...........	-327.56
	12514	6257.5	1.47324E+000	4.31785E-001	0.00000E+000	1.47500E+000	-1.12055E-004	12	...........	-327.56
	12520	6260.5	1.47923E+000	4.38667E-001	0.00000E+000	1.48100E+000	-1.11455E-004	12	...........	-327.56
	12526	6263.5	1.48524E+000	4.54792E-001	0.00000E+000	1.48700E+000	-1.06621E-004	12	...........	-327.56
	12532	6266.5	1.49127E+000	4.69724E-001	0.00000E+000	1.49300E+000	-1.10755E-004	12	...........	-327.56
	12538	6269.5	1.49726E+000	4.82343E-001	0.00000E+000	1.49900E+000	-1.07421E-004	12	...........	-327.56
	12544	6272.5	1.50317E+000	4.97672E-001	0.00000E+000	1.50500E+000	-1.11521E-004	12	...........	-327.56
	12550	6275.5	1.50919E+000	5.11960E-001	0.00000E+000	1.51100E+000	-1.09588E-004	12	...........	-327.56
	12556	6278.5	1.51522E+000	5.25573E-001	0.00000E+000	1.51700E+000	-1.10821E-004	12	...........	-327.56
	12562	6281.5	1.52121E+000	5.40105E-001	0.00000E+000	1.52300E+000	-1.11588E-004	12	...........	-327.56
	12568	6284.5	1.52713E+000	5.56255E-001	0.00000E+000	1.52900E+000	-1.07788E-004	12	...........	-327.56
	12574	6287.5	1.53315E+000	5.73482E-001	0.00000E+000	1.53500E+000	-1.07055E-004	12	...........	-327.56
	12580	6290.5	1.53913E+000	5.92397E-001	0.00000E+000	1.54100E+000	-1.10488E-004	12	...........	-327.56
	12586	6293.5	1.54511E+000	6.04079E-001	0.00000E+000	1.54700E+000	-1.07155E-004	12	...........	-327.56
	12592	6296.5	1.55103E+000	6.22835E-001	0.00000E+000	1.55300E+000	-1.08088E-004	12	...........	-327.56
	12598	6299.5	1.55704E+000	6.39945E-001	0.00000E+000	1.55900E+000	-1.12888E-004	12	...........	-327.56
	12604	6302.5	1.56310E+000	6.54701E-001	0.00000E+000	1.56500E+000	-1.07855E-004	12	...........	-327.56
	12610	6305.5	1.56906E+000	6.72274E-001	0.00000E+000	1.57100E+000	-1.08255E-004	12	...........	-327.56
	12616	6308.5	1.57498E+000	6.88472E-001	0.00000E+000	1.57700E+000	-1.07821E-004	12	...........	-327.56
	12622	6311.5	1.58097E+000	7.04200E-001	0.00000E+000	1.58300E+000	-1.09655E-004	12	...........	-327.56
	12628	6314.5	1.58703E+000	7.22906E-001	0.00000E+000	1.58900E+000	-1.09088E-004	12	...........	-327.56
	12634	6317.5	1.59300E+000	7.44217E-001	0.00000E+000	1.59500E+000	-1.09955E-004	12	...........	-327.56
	12640	6320.5	1.59900E+000	7.54026E-001	0.00000E+000	1.60100E+000	-1.09855E-004	12	...........	-327.56
	12646	6323.5	1.60491E+000	7.71605E-001	0.00000E+000	1.60700E+000	-1.09288E-004	12	...........	-327.56
	12652	6326.5	1.61094E+000	7.87209E-001	0.00000E+000	1.61300E+000	-1.11755E-004	12	...........	-327.56
	12658	6329.5	1.61694E+000	8.14344E-001	0.00000E+000	1.61900E+000	-1.07388E-004	12	...........	-327.56
	12664	6332.5	1.62294E+000	8.25698E-001	0.00000E+000	1.62500E+000	-1.06288E-004	12	...........	-327.56
	12670	6335.5	1.62881E+000	8.50196E-001	0.00000E+000	1.63100E+000	-1.12521E-004	12	...........	-327.56
	12676	6338.5	1.63485E+000	8.64253E-001	0.00000E+000	1.63700E+000	-1.06255E-004	12	...........	-327.56
	12682	6341.5	1.64083E+000	8.89747E-001	0.00000E+000	1.64300E+000	-1.10455E-004	12	...........	-327.56
	12688	6344.5	1.64684E+000	9.08169E-001	0.00000E+000	1.64900E+000	-1.09555E-004	12	...........	-327.56
	12694	6347.5	1.65274E+000	9.15206E-001	0.00000E+000	1.65500E+000	-1.08988E-004	12	...........	-327.56
	12700	6350.5	1.65877E+000	9.35931E-001	0.00000E+000	1.66100E+000	-1.07455E-004	12	...........	-327.56
	12706	6353.5	1.66478E+000	9.47797E-001	0.00000E+000	1.66700E+000	-1.05588E-004	12	...........	-327.56
	12712	6356.5	1.67081E+000	9.60052E-001	0.00000E+000	1.67300E+000	-1.07021E-004	12	...........	-327.56
	12718	6359.5	1.67678E+000	9.72482E-001	0.00000E+000	1.67900E+000	-1.10488E-004	12	...........	-327.56
	12724	6362.5	1.68272E+000	9.99607E-001	0.00000E+000	1.68500E+000	-1.11188E-004	12	...........	-327.56
	12730	6365.5	1.68871E+000	1.01965E+000	0.00000E+000	1.69100E+000	-1.05955E-004	12	...........	-327.56
	12736	6368.5	1.69473E+000	1.03875E+000	0.00000E+000	1.69700E+000	-1.10855E-004	12	...........	-327.56
	12739	6370	1.69773E+000	1.04864E+000	0.00000E+000	1.70000E+000	-1.09988E-004	12	...........	-327.56