File: testing/data/240902_01d_MCL13_cswWE_CV20_initial_test.DTA
EXPLAIN
TAG	CV
TITLE	LABEL	Cyclic Voltammetry	Test &Identifier
DATE	LABEL	9/2/2024	Date
TIME	LABEL	15:58:31	Time
NOTES	NOTES	5	&Notes...

	WE: Ag wire
	RE: Ni/NiO
	CE: steel swirl
PSTAT	PSTAT	REF3000-48128	Potentiostat
VINIT	POTEN	0.00000E+000	T	Initial &E (V)
VLIMIT1	POTEN	1.70000E+000	F	Scan Limit &1 (V)
VLIMIT2	POTEN	0.00000E+000	F	Scan Limit &2 (V)
VFINAL	POTEN	0.00000E+000	T	Final &E (V)
SCANRATE	QUANT	2.00000E+001	&Scan Rate (mV/s)
STEPSIZE	QUANT	1.00000E+000	St&ep Size (mV)
CYCLES	IQUANT	0	C&ycles (#)
IMODE	SELECTOR	0	I/E Range &Mode
IRANGE	QUANT	5.00000E+001	&Max Current (mA)
AREA	QUANT	1.00000E+000	Electrode &Area (cm^2)
ELECTRODETYPE	SELECTOR	1	Electrode Type
STRIPPING	TOGGLE	F	Used for Stripping
CONDIT	TWOPARAM	F	1.50000E+001	0.00000E+000	Conditionin&g	Time(s)	E(V)
DELAY	TWOPARAM	T	3.00000E+001	1.00000E+000	Init. De&lay	Time(s)	Stab.(mV/s)
EQDELAY	QUANT	0.00000E+000	Equil. &Time (s)
IRCOMP	SELECTOR	0	IRCom&p
PFCOR	QUANT	5.00000E+001	PF Corr. (ohm)
SAMPLINGMODE	SELECTOR	1	Sampling &Mode
OCVCURVE	TABLE	120
	Pt	T	Vf	Vm	Ach	Over	Temp
	#	s	V vs. Ref.	V	V	bits	deg C
	0	0.25	2.61774E-001	2.61774E-001	-9.40555E-004	...........	-327.56
	1	0.5	2.61846E-001	2.65526E-001	-9.34355E-004	...........	-327.56
	2	0.75	2.62161E-001	2.62553E-001	-9.32288E-004	...........	-327.56
	3	1	2.62626E-001	2.59010E-001	-9.45288E-004	...........	-327.56
	4	1.25	2.62586E-001	2.55040E-001	-9.41955E-004	...........	-327.56
	5	1.5	2.61430E-001	2.55399E-001	-9.39155E-004	...........	-327.56
	6	1.75	2.59321E-001	2.51346E-001	-9.47088E-004	...........	-327.56
	7	2	2.56822E-001	2.47009E-001	-9.42088E-004	...........	-327.56
	8	2.25	2.54204E-001	2.48738E-001	-9.37955E-004	...........	-327.56
	9	2.5	2.51662E-001	2.46772E-001	-9.41155E-004	...........	-327.56
	10	2.75	2.49556E-001	2.45381E-001	-9.34821E-004	...........	-327.56
	11	3	2.47752E-001	2.31573E-001	-9.36155E-004	...........	-327.56
	12	3.25	2.45383E-001	2.38543E-001	-9.40888E-004	...........	-327.56
	13	3.5	2.42244E-001	2.39422E-001	-9.46555E-004	...........	-327.56
	14	3.75	2.39447E-001	2.33596E-001	-9.41888E-004	...........	-327.56
	15	4	2.37554E-001	2.25517E-001	-9.45421E-004	...........	-327.56
	16	4.25	2.35453E-001	2.21285E-001	-9.39088E-004	...........	-327.56
	17	4.5	2.32221E-001	2.28649E-001	-9.39555E-004	...........	-327.56
	18	4.75	2.28743E-001	2.24932E-001	-9.46621E-004	...........	-327.56
	19	5	2.26307E-001	2.16895E-001	-9.51155E-004	...........	-327.56
	20	5.25	2.24521E-001	2.13364E-001	-9.41888E-004	...........	-327.56
	21	5.5	2.22020E-001	2.09023E-001	-9.46888E-004	...........	-327.56
	22	5.75	2.18507E-001	2.13164E-001	-9.38421E-004	...........	-327.56
	23	6	2.14961E-001	2.06682E-001	-9.38221E-004	...........	-327.56
	24	6.25	2.12004E-001	1.96226E-001	-9.39888E-004	...........	-327.56
	25	6.5	2.08990E-001	1.99933E-001	-9.45621E-004	...........	-327.56
	26	6.75	2.05416E-001	1.98454E-001	-9.40755E-004	...........	-327.56
	27	7	2.02104E-001	2.00403E-001	-9.48155E-004	...........	-327.56
	28	7.25	2.00035E-001	1.97867E-001	-9.43155E-004	...........	-327.56
	29	7.5	1.99064E-001	1.93238E-001	-9.54955E-004	...........	-327.56
	30	7.75	1.98102E-001	1.86772E-001	-9.47288E-004	...........	-327.56
	31	8	1.96096E-001	1.85850E-001	-9.45688E-004	...........	-327.56
	32	8.25	1.93068E-001	1.89815E-001	-9.44488E-004	...........	-327.56
	33	8.5	1.90172E-001	1.86548E-001	-9.47355E-004	...........	-327.56
	34	8.75	1.88253E-001	1.80283E-001	-9.39821E-004	...........	-327.56
	35	9	1.86869E-001	1.84026E-001	-9.53355E-004	...........	-327.56
	36	9.25	1.85341E-001	1.79950E-001	-9.52755E-004	...........	-327.56
	37	9.5	1.83748E-001	1.81276E-001	-9.54021E-004	...........	-327.56
	38	9.75	1.82449E-001	1.81448E-001	-9.48221E-004	...........	-327.56
	39	10	1.81575E-001	1.78863E-001	-9.53821E-004	...........	-327.56
	40	10.25	1.80796E-001	1.69303E-001	-9.46221E-004	...........	-327.56
	41	10.5	1.79067E-001	1.59459E-001	-9.57688E-004	...........	-327.56
	42	10.75	1.75600E-001	1.72816E-001	-9.49888E-004	...........	-327.56
	43	11	1.71599E-001	1.73350E-001	-9.50688E-004	...........	-327.56
	44	11.25	1.69506E-001	1.76683E-001	-9.40288E-004	...........	-327.56
	45	11.5	1.70087E-001	1.71025E-001	-9.48888E-004	...........	-327.56
	46	11.75	1.71647E-001	1.65045E-001	-9.48821E-004	...........	-327.56
	47	12	1.71877E-001	1.58458E-001	-9.51288E-004	...........	-327.56
	48	12.25	1.69755E-001	1.60105E-001	-9.44355E-004	...........	-327.56
	49	12.5	1.66150E-001	1.60410E-001	-9.49755E-004	...........	-327.56
	50	12.75	1.62792E-001	1.57991E-001	-9.50021E-004	...........	-327.56
	51	13	1.60602E-001	1.57404E-001	-9.50155E-004	...........	-327.56
	52	13.25	1.59318E-001	1.57051E-001	-9.42288E-004	...........	-327.56
	53	13.5	1.58474E-001	1.59504E-001	-9.45221E-004	...........	-327.56
	54	13.75	1.57990E-001	1.56423E-001	-9.44155E-004	...........	-327.56
	55	14	1.57790E-001	1.56300E-001	-9.44288E-004	...........	-327.56
	56	14.25	1.57504E-001	1.53103E-001	-9.41755E-004	...........	-327.56
	57	14.5	1.56770E-001	1.52642E-001	-9.47821E-004	...........	-327.56
	58	14.75	1.55528E-001	1.49518E-001	-9.44355E-004	...........	-327.56
	59	15	1.53889E-001	1.46775E-001	-9.51821E-004	...........	-327.56
	60	15.25	1.51875E-001	1.42403E-001	-9.43888E-004	...........	-327.56
	61	15.5	1.49547E-001	1.47807E-001	-9.53888E-004	...........	-327.56
	62	15.75	1.47240E-001	1.35970E-001	-9.47355E-004	...........	-327.56
	63	16	1.44862E-001	1.27795E-001	-9.51821E-004	...........	-327.56
	64	16.25	1.41598E-001	1.32278E-001	-9.44288E-004	...........	-327.56
	65	16.5	1.37481E-001	1.30944E-001	-9.45955E-004	...........	-327.56
	66	16.75	1.33938E-001	1.33231E-001	-9.49288E-004	...........	-327.56
	67	17	1.32025E-001	1.30064E-001	-9.49488E-004	...........	-327.56
	68	17.25	1.31406E-001	1.30108E-001	-9.53221E-004	...........	-327.56
	69	17.5	1.31073E-001	1.25074E-001	-9.50221E-004	...........	-327.56
	70	17.75	1.30381E-001	1.32402E-001	-9.54155E-004	...........	-327.56
	71	18	1.29618E-001	1.31664E-001	-9.53221E-004	...........	-327.56
	72	18.25	1.29375E-001	1.24333E-001	-9.45221E-004	...........	-327.56
	73	18.5	1.29228E-001	1.21258E-001	-9.54288E-004	...........	-327.56
	74	18.75	1.28067E-001	1.19533E-001	-9.45088E-004	...........	-327.56
	75	19	1.25600E-001	1.14619E-001	-9.50288E-004	...........	-327.56
	76	19.25	1.22392E-001	1.11730E-001	-9.56955E-004	...........	-327.56
	77	19.5	1.18889E-001	1.05772E-001	-9.43421E-004	...........	-327.56
	78	19.75	1.15220E-001	1.06850E-001	-9.46421E-004	...........	-327.56
	79	20	1.11801E-001	1.11877E-001	-9.45488E-004	...........	-327.56
	80	20.25	1.09607E-001	1.13868E-001	-9.50221E-004	...........	-327.56
	81	20.5	1.09346E-001	1.13857E-001	-9.52688E-004	...........	-327.56
	82	20.75	1.10443E-001	1.06828E-001	-9.47688E-004	...........	-327.56
	83	21	1.11373E-001	1.09813E-001	-9.47355E-004	...........	-327.56
	84	21.25	1.11194E-001	1.08051E-001	-9.47221E-004	...........	-327.56
	85	21.5	1.10220E-001	1.06859E-001	-9.58088E-004	...........	-327.56
	86	21.75	1.08980E-001	9.96584E-002	-9.56821E-004	...........	-327.56
	87	22	1.07316E-001	9.93483E-002	-9.54955E-004	...........	-327.56
	88	22.25	1.04910E-001	9.47804E-002	-9.56688E-004	...........	-327.56
	89	22.5	1.01854E-001	8.85097E-002	-9.62421E-004	...........	-327.56
	90	22.75	9.83713E-002	8.96375E-002	-9.59288E-004	...........	-327.56
	91	23	9.49369E-002	9.48476E-002	-9.54088E-004	...........	-327.56
	92	23.25	9.25524E-002	9.29057E-002	-9.56088E-004	...........	-327.56
	93	23.5	9.18044E-002	9.21881E-002	-9.60821E-004	...........	-327.56
	94	23.75	9.19819E-002	8.70319E-002	-9.59821E-004	...........	-327.56
	95	24	9.16174E-002	7.69511E-002	-9.54488E-004	...........	-327.56
	96	24.25	8.95691E-002	7.88366E-002	-9.62221E-004	...........	-327.56
	97	24.5	8.59724E-002	7.77195E-002	-9.69888E-004	...........	-327.56
	98	24.75	8.22884E-002	8.15442E-002	-9.61955E-004	...........	-327.56
	99	25	7.99658E-002	7.94241E-002	-9.61288E-004	...........	-327.56
	100	25.25	7.92943E-002	8.23848E-002	-9.62355E-004	...........	-327.56
	101	25.5	7.97050E-002	8.31088E-002	-9.56555E-004	...........	-327.56
	102	25.75	8.06511E-002	8.53383E-002	-9.54888E-004	...........	-327.56
	103	26	8.16750E-002	7.44922E-002	-9.68955E-004	...........	-327.56
	104	26.25	8.18300E-002	7.06156E-002	-9.60621E-004	...........	-327.56
	105	26.5	8.03605E-002	8.16796E-002	-9.57755E-004	...........	-327.56
	106	26.75	7.82394E-002	7.94260E-002	-9.64221E-004	...........	-327.56
	107	27	7.71444E-002	7.29511E-002	-9.56955E-004	...........	-327.56
	108	27.25	7.70362E-002	7.59462E-002	-9.64088E-004	...........	-327.56
	109	27.5	7.67900E-002	7.51834E-002	-9.64755E-004	...........	-327.56
	110	27.75	7.62537E-002	7.97443E-002	-9.56821E-004	...........	-327.56
	111	28	7.60894E-002	7.67561E-002	-9.55821E-004	...........	-327.56
	112	28.25	7.62922E-002	6.60759E-002	-9.56488E-004	...........	-327.56
	113	28.5	7.55449E-002	5.65551E-002	-9.60955E-004	...........	-327.56
	114	28.75	7.23188E-002	5.17404E-002	-9.55355E-004	...........	-327.56
	115	29	6.66340E-002	5.00060E-002	-9.57221E-004	...........	-327.56
	116	29.25	6.01583E-002	4.72922E-002	-9.59888E-004	...........	-327.56
	117	29.5	5.46436E-002	4.74990E-002	-9.67821E-004	...........	-327.56
	118	29.75	5.07716E-002	4.38159E-002	-9.55955E-004	...........	-327.56
	119	30	4.82338E-002	4.36796E-002	-9.54221E-004	...........	-327.56
EOC	QUANT	0.0482338	Open Circuit (V)
PSTATMODEL	IQUANT	5	Pstat Model
PSTATSECTION	LABEL	REF3000-48128	Pstat Section
PSTATSERIALNO	LABEL	48128	Pstat Serial Number
CTRLMODE	IQUANT	1	Control Mode
ELECTROMETER	IQUANT	0	RE=0 or CS=1
IESTAB	IQUANT	2	I/E Stability
CASPEED	IQUANT	4	Control Amp Speed
CONVENTION	IQUANT	1	Current Convention
ICHRANGE	IQUANT	2	Ich Range
ICHRANGEMODE	TOGGLE	F	Ich Auto Range
ICHOFFSETENABLE	TOGGLE	F	Ich Offset Enable
ICHOFFSET	QUANT	0	Ich Offset (V)
ICHFILTER	IQUANT	2	Ich Filter
VCHRANGE	IQUANT	3	Vch Range
VCHRANGEMODE	TOGGLE	T	Vch Auto Range
VCHOFFSETENABLE	TOGGLE	F	Vch Offset Enable
VCHOFFSET	QUANT	0	Vch Offset (V)
VCHFILTER	IQUANT	1	Vch Filter
ACHRANGE	IQUANT	2	Ach Range
ACHOFFSETENABLE	TOGGLE	F	Ach Offset Enable
ACHOFFSET	QUANT	0	Ach Offset (V)
ACHFILTER	IQUANT	1	Ach Filter
IERANGELOWERLIMIT	IQUANT	2	I/E Range Lower Limit
IERANGEMODE	TOGGLE	T	I/E AutoRange
IERANGE	IQUANT	11	I/E Range
POSFEEDENABLE	TOGGLE	F	Positive Feedback IR Comp
POSFEEDRESISTANCE	QUANT	0	Positive Feedback Resistance (ohm)
ACHSELECT	IQUANT	1	Ach Select
SENSECABLEID	IQUANT	14	Sense Cable ID
PWRCABLEID	IQUANT	7	Power Cable ID
DCCALDATE	LABEL	8/16/2024	DC Calibration Date
ACCALDATE	LABEL	8/16/2024	AC Calibration Date
THERMOSELECT	IQUANT	1	Thermo Select
FRAMEWORKVERSION	LABEL	7.10.3	Framework Version
INSTRUMENTVERSION	LABEL	4.91	Instrument Version
COMMVERSION	LABEL	5.10	Communications Version
CPUPLDVERSION	LABEL	6.00	CPU PLD Version
CTRLPLDVERSION	LABEL	3.21	CTRL PLD Version
PSTATPLDVERSION	LABEL	0.00	PSTAT PLD Version
COMPLIANCEVOLTAGE	IQUANT	0	Compliance Voltage
CURVE1	TABLE
	Pt	T	Vf	Im	Vu	Sig	Ach	IERange	Over	Temp
	#	s	V vs. Ref.	A	V	V	V	#	bits	deg C
	0	0.05	4.91851E-002	-1.82406E-003	0.00000E+000	4.82500E-002	-2.68189E-003	11	...........	-327.56
	7	0.4	5.51399E-002	-3.66637E-004	0.00000E+000	5.52500E-002	-2.67889E-003	9	...........	-327.56
	14	0.75	6.07246E-002	3.27676E-005	0.00000E+000	6.22500E-002	-2.68222E-003	7	....ih..i..	-327.56
	21	1.1	6.89273E-002	1.21251E-003	0.00000E+000	6.92500E-002	-2.68189E-003	9	...........	-327.56
	28	1.45	7.57936E-002	2.10232E-003	0.00000E+000	7.62500E-002	-2.68355E-003	9	...........	-327.56
	35	1.8	8.28451E-002	1.77402E-003	0.00000E+000	8.32500E-002	-2.67955E-003	9	...........	-327.56
	42	2.15	9.05583E-002	2.78815E-003	0.00000E+000	9.02500E-002	-2.67855E-003	10	...........	-327.56
	49	2.5	9.75421E-002	4.13938E-003	0.00000E+000	9.72500E-002	-2.67922E-003	10	...........	-327.56
	56	2.85	1.04508E-001	5.39807E-003	0.00000E+000	1.04250E-001	-2.68089E-003	10	...........	-327.56
	63	3.2	1.11510E-001	5.43248E-003	0.00000E+000	1.11250E-001	-2.68189E-003	10	...........	-327.56
	70	3.55	1.18439E-001	8.79476E-003	0.00000E+000	1.18250E-001	-2.68289E-003	10	...........	-327.56
	77	3.9	1.25397E-001	1.10658E-002	0.00000E+000	1.25250E-001	-2.68155E-003	10	...........	-327.56
	84	4.25	1.32380E-001	1.28603E-002	0.00000E+000	1.32250E-001	-2.68089E-003	10	...........	-327.56
	91	4.6	1.39473E-001	5.87023E-003	0.00000E+000	1.39250E-001	-2.67389E-003	10	...........	-327.56
	98	4.95	1.46442E-001	7.62030E-003	0.00000E+000	1.46250E-001	-2.68122E-003	10	...........	-327.56
	105	5.3	1.53422E-001	8.86360E-003	0.00000E+000	1.53250E-001	-2.67689E-003	10	...........	-327.56
	112	5.65	1.60379E-001	1.16392E-002	0.00000E+000	1.60250E-001	-2.67555E-003	10	...........	-327.56
	119	6	1.67406E-001	9.14910E-003	0.00000E+000	1.67250E-001	-2.68422E-003	10	...........	-327.56
	126	6.35	1.74307E-001	1.44492E-002	0.00000E+000	1.74250E-001	-2.68122E-003	10	...........	-327.56
	133	6.7	1.81246E-001	1.77160E-002	0.00000E+000	1.81250E-001	-2.68255E-003	10	...........	-327.56
	140	7.05	1.88291E-001	1.45103E-002	0.00000E+000	1.88250E-001	-2.67355E-003	10	...........	-327.56
	147	7.4	1.95272E-001	1.63072E-002	0.00000E+000	1.95250E-001	-2.68522E-003	10	...........	-327.56
	154	7.75	2.02261E-001	1.66062E-002	0.00000E+000	2.02250E-001	-2.68022E-003	10	...........	-327.56
	161	8.1	2.09212E-001	2.04262E-002	0.00000E+000	2.09250E-001	-2.68289E-003	10	...........	-327.56
	168	8.45	2.16162E-001	2.35323E-002	0.00000E+000	2.16250E-001	-2.69055E-003	10	...........	-327.56
	175	8.8	2.23144E-001	2.27800E-002	0.00000E+000	2.23250E-001	-2.67722E-003	10	...........	-327.56
	182	9.15	2.30156E-001	2.11902E-002	0.00000E+000	2.30250E-001	-2.68355E-003	10	...........	-327.56
	189	9.5	2.37601E-001	2.79891E-002	0.00000E+000	2.37250E-001	-2.67922E-003	11	...........	-327.56
	196	9.85	2.44060E-001	2.69591E-002	0.00000E+000	2.44250E-001	-2.68055E-003	10	...........	-327.56
	203	10.2	2.51587E-001	3.00712E-002	0.00000E+000	2.51250E-001	-2.67722E-003	11	...........	-327.56
	210	10.55	2.58576E-001	3.43711E-002	0.00000E+000	2.58250E-001	-2.67889E-003	11	...........	-327.56
	217	10.9	2.65558E-001	3.73667E-002	0.00000E+000	2.65250E-001	-2.67889E-003	11	...........	-327.56
	224	11.25	2.72380E-001	3.71257E-002	0.00000E+000	2.72250E-001	-2.67755E-003	11	...........	-327.56
	231	11.6	2.79412E-001	4.00082E-002	0.00000E+000	2.79250E-001	-2.67922E-003	11	...........	-327.56
	238	11.95	2.86427E-001	4.15517E-002	0.00000E+000	2.86250E-001	-2.67855E-003	11	...........	-327.56
	245	12.3	2.93433E-001	4.60882E-002	0.00000E+000	2.93250E-001	-2.67822E-003	11	...........	-327.56
	252	12.65	3.00306E-001	5.33334E-002	0.00000E+000	3.00250E-001	-2.68155E-003	11	...........	-327.56
	259	13	3.07376E-001	5.26972E-002	0.00000E+000	3.07250E-001	-2.67322E-003	11	...........	-327.56
	266	13.35	3.14318E-001	5.17471E-002	0.00000E+000	3.14250E-001	-2.68922E-003	11	...........	-327.56
	273	13.7	3.21207E-001	5.59727E-002	0.00000E+000	3.21250E-001	-2.68089E-003	11	...........	-327.56
	280	14.05	3.28238E-001	6.02943E-002	0.00000E+000	3.28250E-001	-2.68422E-003	11	...........	-327.56
	287	14.4	3.35192E-001	6.39907E-002	0.00000E+000	3.35250E-001	-2.68322E-003	11	...........	-327.56
	294	14.75	3.42140E-001	7.23323E-002	0.00000E+000	3.42250E-001	-2.68022E-003	11	...........	-327.56
	301	15.1	3.49067E-001	7.04555E-002	0.00000E+000	3.49250E-001	-2.67055E-003	11	...........	-327.56
	308	15.45	3.56074E-001	7.48564E-002	0.00000E+000	3.56250E-001	-2.67489E-003	11	...........	-327.56
	315	15.8	3.63079E-001	8.05819E-002	0.00000E+000	3.63250E-001	-2.67989E-003	11	...........	-327.56
	322	16.15	3.70053E-001	8.29867E-002	0.00000E+000	3.70250E-001	-2.68255E-003	11	...........	-327.56
	329	16.5	3.76947E-001	9.10569E-002	0.00000E+000	3.77250E-001	-2.68255E-003	11	...........	-327.56
	336	16.85	3.83949E-001	9.19974E-002	0.00000E+000	3.84250E-001	-2.68155E-003	11	...........	-327.56
	343	17.2	3.90970E-001	9.51711E-002	0.00000E+000	3.91250E-001	-2.68289E-003	11	...........	-327.56
	350	17.55	3.97822E-001	1.04406E-001	0.00000E+000	3.98250E-001	-2.68122E-003	11	...........	-327.56
	357	17.9	4.04898E-001	1.05968E-001	0.00000E+000	4.05250E-001	-2.67322E-003	11	...........	-327.56
	364	18.25	4.11878E-001	1.12689E-001	0.00000E+000	4.12250E-001	-2.68989E-003	11	...........	-327.56
	371	18.6	4.18881E-001	1.17442E-001	0.00000E+000	4.19250E-001	-2.67489E-003	11	...........	-327.56
	378	18.95	4.25821E-001	1.21175E-001	0.00000E+000	4.26250E-001	-2.67789E-003	11	...........	-327.56
	385	19.3	4.32837E-001	1.19465E-001	0.00000E+000	4.33250E-001	-2.69189E-003	11	...........	-327.56
	392	19.65	4.39832E-001	1.16861E-001	0.00000E+000	4.40250E-001	-2.68255E-003	11	...........	-327.56
	399	20	4.46880E-001	1.12626E-001	0.00000E+000	4.47250E-001	-2.68389E-003	11	...........	-327.56
	406	20.35	4.53811E-001	1.06143E-001	0.00000E+000	4.54250E-001	-2.68689E-003	11	...........	-327.56
	413	20.7	4.60894E-001	1.02207E-001	0.00000E+000	4.61250E-001	-2.67689E-003	11	...........	-327.56
	420	21.05	4.67897E-001	1.00154E-001	0.00000E+000	4.68250E-001	-2.68655E-003	11	...........	-327.56
	427	21.4	4.74835E-001	9.33300E-002	0.00000E+000	4.75250E-001	-2.67589E-003	11	...........	-327.56
	434	21.75	4.81878E-001	8.95017E-002	0.00000E+000	4.82250E-001	-2.67555E-003	11	...........	-327.56
	441	22.1	4.88938E-001	8.59451E-002	0.00000E+000	4.89250E-001	-2.67422E-003	11	...........	-327.56
	448	22.45	4.95984E-001	8.12809E-002	0.00000E+000	4.96250E-001	-2.67322E-003	11	...........	-327.56
	455	22.8	5.02894E-001	8.00312E-002	0.00000E+000	5.03250E-001	-2.67655E-003	11	...........	-327.56
	462	23.15	5.09948E-001	7.76754E-002	0.00000E+000	5.10250E-001	-2.66322E-003	11	...........	-327.56
	469	23.5	5.17005E-001	7.16124E-002	0.00000E+000	5.17250E-001	-2.68455E-003	11	...........	-327.56
	476	23.85	5.24020E-001	6.90428E-002	0.00000E+000	5.24250E-001	-2.67055E-003	11	...........	-327.56
	483	24.2	5.30992E-001	6.50776E-002	0.00000E+000	5.31250E-001	-2.68089E-003	11	...........	-327.56
	490	24.55	5.38017E-001	6.33637E-002	0.00000E+000	5.38250E-001	-2.67622E-003	11	...........	-327.56
	497	24.9	5.45033E-001	6.24138E-002	0.00000E+000	5.45250E-001	-2.67789E-003	11	...........	-327.56
	504	25.25	5.52035E-001	6.02908E-002	0.00000E+000	5.52250E-001	-2.66555E-003	11	...........	-327.56
	511	25.6	5.59050E-001	5.88433E-002	0.00000E+000	5.59250E-001	-2.67389E-003	11	...........	-327.56
	518	25.95	5.66091E-001	5.51767E-002	0.00000E+000	5.66250E-001	-2.66922E-003	11	...........	-327.56
	525	26.3	5.73115E-001	5.32766E-002	0.00000E+000	5.73250E-001	-2.67089E-003	11	...........	-327.56
	532	26.65	5.80038E-001	5.37593E-002	0.00000E+000	5.80250E-001	-2.67755E-003	11	...........	-327.56
	539	27	5.87078E-001	5.03168E-002	0.00000E+000	5.87250E-001	-2.66955E-003	11	...........	-327.56
	546	27.35	5.94135E-001	4.92667E-002	0.00000E+000	5.94250E-001	-2.67522E-003	11	...........	-327.56
	553	27.7	6.01114E-001	4.94934E-002	0.00000E+000	6.01250E-001	-2.67055E-003	11	...........	-327.56
	560	28.05	6.08132E-001	4.57607E-002	0.00000E+000	6.08250E-001	-2.67055E-003	11	...........	-327.56
	567	28.4	6.15087E-001	4.39510E-002	0.00000E+000	6.15250E-001	-2.67322E-003	11	...........	-327.56
	574	28.75	6.22107E-001	4.34327E-002	0.00000E+000	6.22250E-001	-2.67155E-003	11	...........	-327.56
	581	29.1	6.29050E-001	4.17474E-002	0.00000E+000	6.29250E-001	-2.66889E-003	11	...........	-327.56
	588	29.45	6.36068E-001	4.12126E-002	0.00000E+000	6.36250E-001	-2.66655E-003	11	...........	-327.56
	595	29.8	6.43080E-001	4.06355E-002	0.00000E+000	6.43250E-001	-2.67389E-003	11	...........	-327.56
	602	30.15	6.50121E-001	3.88794E-002	0.00000E+000	6.50250E-001	-2.67222E-003	11	...........	-327.56
	609	30.5	6.57046E-001	3.79369E-002	0.00000E+000	6.57250E-001	-2.66989E-003	11	...........	-327.56
	616	30.85	6.64107E-001	3.69479E-002	0.00000E+000	6.64250E-001	-2.67255E-003	11	...........	-327.56
	623	31.2	6.71130E-001	3.59112E-002	0.00000E+000	6.71250E-001	-2.68055E-003	11	...........	-327.56
	630	31.55	6.78117E-001	3.53420E-002	0.00000E+000	6.78250E-001	-2.66489E-003	11	...........	-327.56
	637	31.9	6.85065E-001	3.44047E-002	0.00000E+000	6.85250E-001	-2.67222E-003	11	...........	-327.56
	644	32.25	6.92069E-001	3.37605E-002	0.00000E+000	6.92250E-001	-2.67589E-003	11	...........	-327.56
	651	32.6	6.99085E-001	3.31605E-002	0.00000E+000	6.99250E-001	-2.67189E-003	11	...........	-327.56
	658	32.95	7.06029E-001	3.21795E-002	0.00000E+000	7.06250E-001	-2.66555E-003	11	...........	-327.56
	665	33.3	7.13048E-001	3.17430E-002	0.00000E+000	7.13250E-001	-2.68355E-003	11	...........	-327.56
	672	33.65	7.20055E-001	3.17841E-002	0.00000E+000	7.20250E-001	-2.67589E-003	11	...........	-327.56
	679	34	7.27071E-001	3.06767E-002	0.00000E+000	7.27250E-001	-2.67622E-003	11	...........	-327.56
	686	34.35	7.33985E-001	3.07431E-002	0.00000E+000	7.34250E-001	-2.68255E-003	11	...........	-327.56
	693	34.7	7.41033E-001	3.06239E-002	0.00000E+000	7.41250E-001	-2.68455E-003	11	...........	-327.56
	700	35.05	7.48047E-001	2.99037E-002	0.00000E+000	7.48250E-001	-2.67789E-003	11	...........	-327.56
	707	35.4	7.55045E-001	2.96164E-002	0.00000E+000	7.55250E-001	-2.67255E-003	11	...........	-327.56
	714	35.75	7.61979E-001	2.87627E-002	0.00000E+000	7.62250E-001	-2.66422E-003	11	...........	-327.56
	721	36.1	7.69000E-001	2.83701E-002	0.00000E+000	7.69250E-001	-2.67489E-003	11	...........	-327.56
	728	36.45	7.76035E-001	2.81438E-002	0.00000E+000	7.76250E-001	-2.68355E-003	11	...........	-327.56
	735	36.8	7.82953E-001	2.77510E-002	0.00000E+000	7.83250E-001	-2.66822E-003	11	...........	-327.56
	742	37.15	7.89960E-001	2.76992E-002	0.00000E+000	7.90250E-001	-2.66322E-003	11	...........	-327.56
	749	37.5	7.97019E-001	2.72908E-002	0.00000E+000	7.97250E-001	-2.67789E-003	11	...........	-327.56
	756	37.85	8.04028E-001	2.71081E-002	0.00000E+000	8.04250E-001	-2.66989E-003	11	...........	-327.56
	763	38.2	8.10959E-001	2.69845E-002	0.00000E+000	8.11250E-001	-2.67289E-003	11	...........	-327.56
	770	38.55	8.17960E-001	2.71201E-002	0.00000E+000	8.18250E-001	-2.67589E-003	11	...........	-327.56
	777	38.9	8.24948E-001	2.65625E-002	0.00000E+000	8.25250E-001	-2.67555E-003	11	...........	-327.56
	784	39.25	8.31971E-001	2.64497E-002	0.00000E+000	8.32250E-001	-2.67122E-003	11	...........	-327.56
	791	39.6	8.38915E-001	2.66357E-002	0.00000E+000	8.39250E-001	-2.67355E-003	11	...........	-327.56
	798	39.95	8.45918E-001	2.62923E-002	0.00000E+000	8.46250E-001	-2.67055E-003	11	...........	-327.56
	805	40.3	8.52959E-001	2.62647E-002	0.00000E+000	8.53250E-001	-2.66689E-003	11	...........	-327.56
	812	40.65	8.59871E-001	2.63316E-002	0.00000E+000	8.60250E-001	-2.67522E-003	11	...........	-327.56
	819	41	8.66872E-001	2.67853E-002	0.00000E+000	8.67250E-001	-2.67289E-003	11	...........	-327.56
	826	41.35	8.73910E-001	2.67869E-002	0.00000E+000	8.74250E-001	-2.66222E-003	11	...........	-327.56
	833	41.7	8.80905E-001	2.65777E-002	0.00000E+000	8.81250E-001	-2.67522E-003	11	...........	-327.56
	840	42.05	8.87842E-001	2.64524E-002	0.00000E+000	8.88250E-001	-2.67489E-003	11	...........	-327.56
	847	42.4	8.94861E-001	2.65401E-002	0.00000E+000	8.95250E-001	-2.67022E-003	11	...........	-327.56
	854	42.75	9.01915E-001	2.67574E-002	0.00000E+000	9.02250E-001	-2.67922E-003	11	...........	-327.56
	861	43.1	9.08915E-001	2.67817E-002	0.00000E+000	9.09250E-001	-2.67422E-003	11	...........	-327.56
	868	43.45	9.15843E-001	2.69328E-002	0.00000E+000	9.16250E-001	-2.66489E-003	11	...........	-327.56
	875	43.8	9.22809E-001	2.72761E-002	0.00000E+000	9.23250E-001	-2.68022E-003	11	...........	-327.56
	882	44.15	9.29843E-001	2.77066E-002	0.00000E+000	9.30250E-001	-2.67055E-003	11	...........	-327.56
	889	44.5	9.36780E-001	2.78466E-002	0.00000E+000	9.37250E-001	-2.67655E-003	11	...........	-327.56
	896	44.85	9.43789E-001	2.81981E-002	0.00000E+000	9.44250E-001	-2.67089E-003	11	...........	-327.56
	903	45.2	9.50794E-001	2.86787E-002	0.00000E+000	9.51250E-001	-2.66722E-003	11	...........	-327.56
	910	45.55	9.57823E-001	2.94934E-002	0.00000E+000	9.58250E-001	-2.68055E-003	11	...........	-327.56
	917	45.9	9.64756E-001	3.04035E-002	0.00000E+000	9.65250E-001	-2.67255E-003	11	...........	-327.56
	924	46.25	9.71786E-001	3.10944E-002	0.00000E+000	9.72250E-001	-2.67022E-003	11	...........	-327.56
	931	46.6	9.78797E-001	3.23276E-002	0.00000E+000	9.79250E-001	-2.67855E-003	11	...........	-327.56
	938	46.95	9.85788E-001	3.39475E-002	0.00000E+000	9.86250E-001	-2.67422E-003	11	...........	-327.56
	945	47.3	9.92714E-001	3.64631E-002	0.00000E+000	9.93250E-001	-2.66755E-003	11	...........	-327.56
	952	47.65	9.99733E-001	3.90311E-002	0.00000E+000	1.00025E+000	-2.66789E-003	11	...........	-327.56
	959	48	1.00674E+000	4.25120E-002	0.00000E+000	1.00725E+000	-2.67389E-003	11	...........	-327.56
	966	48.35	1.01366E+000	4.69056E-002	0.00000E+000	1.01425E+000	-2.67522E-003	11	...........	-327.56
	973	48.7	1.02063E+000	5.12213E-002	0.00000E+000	1.02125E+000	-2.68422E-003	11	...........	-327.56
	980	49.05	1.02760E+000	5.56841E-002	0.00000E+000	1.02825E+000	-2.66889E-003	11	...........	-327.56
	987	49.4	1.03457E+000	6.02135E-002	0.00000E+000	1.03525E+000	-2.66989E-003	11	...........	-327.56
	994	49.75	1.04147E+000	6.45284E-002	0.00000E+000	1.04225E+000	-2.67755E-003	11	...........	-327.56
	1001	50.1	1.04847E+000	6.83230E-002	0.00000E+000	1.04925E+000	-2.66922E-003	11	...........	-327.56
	1008	50.45	1.05547E+000	7.21349E-002	0.00000E+000	1.05625E+000	-2.67889E-003	11	...........	-327.56
	1015	50.8	1.06246E+000	7.50317E-002	0.00000E+000	1.06325E+000	-2.67189E-003	11	...........	-327.56
	1022	51.15	1.06939E+000	7.77706E-002	0.00000E+000	1.07025E+000	-2.66822E-003	11	...........	-327.56
	1029	51.5	1.07637E+000	7.99472E-002	0.00000E+000	1.07725E+000	-2.67955E-003	11	...........	-327.56
	1036	51.85	1.08339E+000	8.16714E-002	0.00000E+000	1.08425E+000	-2.67222E-003	11	...........	-327.56
	1043	52.2	1.09031E+000	8.31293E-002	0.00000E+000	1.09125E+000	-2.67889E-003	11	...........	-327.56
	1050	52.55	1.09731E+000	8.41598E-002	0.00000E+000	1.09825E+000	-2.66355E-003	11	...........	-327.56
	1057	52.9	1.10433E+000	8.51340E-002	0.00000E+000	1.10525E+000	-2.67622E-003	11	...........	-327.56
	1064	53.25	1.11134E+000	8.61576E-002	0.00000E+000	1.11225E+000	-2.67622E-003	11	...........	-327.56
	1071	53.6	1.11828E+000	8.59382E-002	0.00000E+000	1.11925E+000	-2.66922E-003	11	...........	-327.56
	1078	53.95	1.12530E+000	8.59623E-002	0.00000E+000	1.12625E+000	-2.67122E-003	11	...........	-327.56
	1085	54.3	1.13226E+000	8.60377E-002	0.00000E+000	1.13325E+000	-2.67355E-003	11	...........	-327.56
	1092	54.65	1.13929E+000	8.61464E-002	0.00000E+000	1.14025E+000	-2.66889E-003	11	...........	-327.56
	1099	55	1.14623E+000	8.66133E-002	0.00000E+000	1.14725E+000	-2.66989E-003	11	...........	-327.56
	1106	55.35	1.15323E+000	8.56072E-002	0.00000E+000	1.15425E+000	-2.66322E-003	11	...........	-327.56
	1113	55.7	1.16027E+000	8.55995E-002	0.00000E+000	1.16125E+000	-2.67022E-003	11	...........	-327.56
	1120	56.05	1.16721E+000	8.48954E-002	0.00000E+000	1.16825E+000	-2.66822E-003	11	...........	-327.56
	1127	56.4	1.17421E+000	8.44509E-002	0.00000E+000	1.17525E+000	-2.67255E-003	11	...........	-327.56
	1134	56.75	1.18123E+000	8.39477E-002	0.00000E+000	1.18225E+000	-2.67522E-003	11	...........	-327.56
	1141	57.1	1.18825E+000	8.35696E-002	0.00000E+000	1.18925E+000	-2.67389E-003	11	...........	-327.56
	1148	57.45	1.19524E+000	8.30642E-002	0.00000E+000	1.19625E+000	-2.66822E-003	11	...........	-327.56
	1155	57.8	1.20220E+000	8.24790E-002	0.00000E+000	1.20325E+000	-2.67189E-003	11	...........	-327.56
	1162	58.15	1.20926E+000	8.22088E-002	0.00000E+000	1.21025E+000	-2.66489E-003	11	...........	-327.56
	1169	58.5	1.21626E+000	8.19741E-002	0.00000E+000	1.21725E+000	-2.67255E-003	11	...........	-327.56
	1176	58.85	1.22322E+000	8.18667E-002	0.00000E+000	1.22425E+000	-2.67289E-003	11	...........	-327.56
	1183	59.2	1.23022E+000	8.19559E-002	0.00000E+000	1.23125E+000	-2.67089E-003	11	...........	-327.56
	1190	59.55	1.23725E+000	8.25480E-002	0.00000E+000	1.23825E+000	-2.67355E-003	11	...........	-327.56
	1197	59.9	1.24416E+000	8.34334E-002	0.00000E+000	1.24525E+000	-2.67955E-003	11	...........	-327.56
	1204	60.25	1.25118E+000	8.48100E-002	0.00000E+000	1.25225E+000	-2.66255E-003	11	...........	-327.56
	1211	60.6	1.25818E+000	8.69059E-002	0.00000E+000	1.25925E+000	-2.67655E-003	11	...........	-327.56
	1218	60.95	1.26517E+000	8.97960E-002	0.00000E+000	1.26625E+000	-2.67655E-003	11	...........	-327.56
	1225	61.3	1.27216E+000	9.29779E-002	0.00000E+000	1.27325E+000	-2.67322E-003	11	...........	-327.56
	1232	61.65	1.27909E+000	9.74130E-002	0.00000E+000	1.28025E+000	-2.67689E-003	11	...........	-327.56
	1239	62	1.28610E+000	1.03622E-001	0.00000E+000	1.28725E+000	-2.66289E-003	11	...........	-327.56
	1246	62.35	1.29307E+000	1.09908E-001	0.00000E+000	1.29425E+000	-2.67122E-003	11	...........	-327.56
	1253	62.7	1.29998E+000	1.17217E-001	0.00000E+000	1.30125E+000	-2.67289E-003	11	...........	-327.56
	1260	63.05	1.30696E+000	1.25544E-001	0.00000E+000	1.30825E+000	-2.66789E-003	11	...........	-327.56
	1267	63.4	1.31398E+000	1.34613E-001	0.00000E+000	1.31525E+000	-2.67589E-003	11	...........	-327.56
	1274	63.75	1.32081E+000	1.74314E-001	0.00000E+000	1.32225E+000	-2.67622E-003	11	...........	-327.56
	1281	64.1	1.32788E+000	1.58541E-001	0.00000E+000	1.32925E+000	-2.66655E-003	11	...........	-327.56
	1288	64.45	1.33481E+000	1.68092E-001	0.00000E+000	1.33625E+000	-2.68522E-003	11	...........	-327.56
	1295	64.8	1.34180E+000	1.78933E-001	0.00000E+000	1.34325E+000	-2.67555E-003	11	...........	-327.56
	1302	65.15	1.34871E+000	1.90550E-001	0.00000E+000	1.35025E+000	-2.67222E-003	11	...........	-327.56
	1309	65.5	1.35571E+000	2.02512E-001	0.00000E+000	1.35725E+000	-2.67589E-003	11	...........	-327.56
	1316	65.85	1.36272E+000	2.14962E-001	0.00000E+000	1.36425E+000	-2.67289E-003	11	...........	-327.56
	1323	66.2	1.36969E+000	2.27849E-001	0.00000E+000	1.37125E+000	-2.67922E-003	11	...........	-327.56
	1330	66.55	1.37663E+000	2.40847E-001	0.00000E+000	1.37825E+000	-2.68222E-003	11	...........	-327.56
	1337	66.9	1.38360E+000	2.54167E-001	0.00000E+000	1.38525E+000	-2.68522E-003	11	...........	-327.56
	1344	67.25	1.39060E+000	2.67176E-001	0.00000E+000	1.39225E+000	-2.67422E-003	11	...........	-327.56
	1351	67.6	1.39782E+000	2.81884E-001	0.00000E+000	1.39925E+000	-2.68255E-003	12	...........	-327.56
	1358	67.95	1.40481E+000	2.95072E-001	0.00000E+000	1.40625E+000	-2.67322E-003	12	...........	-327.56
	1365	68.3	1.41186E+000	3.08546E-001	0.00000E+000	1.41325E+000	-2.67255E-003	12	...........	-327.56
	1372	68.65	1.41886E+000	3.23038E-001	0.00000E+000	1.42025E+000	-2.67855E-003	12	...........	-327.56
	1379	69	1.42579E+000	3.38177E-001	0.00000E+000	1.42725E+000	-2.67455E-003	12	...........	-327.56
	1386	69.35	1.43276E+000	3.51352E-001	0.00000E+000	1.43425E+000	-2.67822E-003	12	...........	-327.56
	1393	69.7	1.43977E+000	3.65735E-001	0.00000E+000	1.44125E+000	-2.68122E-003	12	...........	-327.56
	1400	70.05	1.44667E+000	3.79892E-001	0.00000E+000	1.44825E+000	-2.66589E-003	12	...........	-327.56
	1407	70.4	1.45369E+000	3.94206E-001	0.00000E+000	1.45525E+000	-2.67655E-003	12	...........	-327.56
	1414	70.75	1.46070E+000	4.08396E-001	0.00000E+000	1.46225E+000	-2.66822E-003	12	...........	-327.56
	1421	71.1	1.46769E+000	4.23269E-001	0.00000E+000	1.46925E+000	-2.67755E-003	12	...........	-327.56
	1428	71.45	1.47460E+000	4.38680E-001	0.00000E+000	1.47625E+000	-2.67122E-003	12	...........	-327.56
	1435	71.8	1.48161E+000	4.54910E-001	0.00000E+000	1.48325E+000	-2.66789E-003	12	...........	-327.56
	1442	72.15	1.48863E+000	4.70503E-001	0.00000E+000	1.49025E+000	-2.67255E-003	12	...........	-327.56
	1449	72.5	1.49564E+000	4.84829E-001	0.00000E+000	1.49725E+000	-2.67489E-003	12	...........	-327.56
	1456	72.85	1.50255E+000	5.00923E-001	0.00000E+000	1.50425E+000	-2.68022E-003	12	...........	-327.56
	1463	73.2	1.50954E+000	5.16019E-001	0.00000E+000	1.51125E+000	-2.66989E-003	12	...........	-327.56
	1470	73.55	1.51658E+000	5.31591E-001	0.00000E+000	1.51825E+000	-2.66522E-003	12	...........	-327.56
	1477	73.9	1.52348E+000	5.46492E-001	0.00000E+000	1.52525E+000	-2.67855E-003	12	...........	-327.56
	1484	74.25	1.53049E+000	5.65077E-001	0.00000E+000	1.53225E+000	-2.67855E-003	12	...........	-327.56
	1491	74.6	1.53746E+000	5.78336E-001	0.00000E+000	1.53925E+000	-2.66822E-003	12	...........	-327.56
	1498	74.95	1.54448E+000	5.94880E-001	0.00000E+000	1.54625E+000	-2.67822E-003	12	...........	-327.56
	1505	75.3	1.55136E+000	6.09917E-001	0.00000E+000	1.55325E+000	-2.66955E-003	12	...........	-327.56
	1512	75.65	1.55838E+000	6.24697E-001	0.00000E+000	1.56025E+000	-2.67589E-003	12	...........	-327.56
	1519	76	1.56540E+000	6.41017E-001	0.00000E+000	1.56725E+000	-2.67022E-003	12	...........	-327.56
	1526	76.35	1.57239E+000	6.56282E-001	0.00000E+000	1.57425E+000	-2.67555E-003	12	...........	-327.56
	1533	76.7	1.57933E+000	6.74807E-001	0.00000E+000	1.58125E+000	-2.66989E-003	12	...........	-327.56
	1540	77.05	1.58629E+000	6.87758E-001	0.00000E+000	1.58825E+000	-2.66522E-003	12	...........	-327.56
	1547	77.4	1.59334E+000	7.03408E-001	0.00000E+000	1.59525E+000	-2.67455E-003	12	...........	-327.56
	1554	77.75	1.60023E+000	7.22207E-001	0.00000E+000	1.60225E+000	-2.66955E-003	12	...........	-327.56
	1561	78.1	1.60725E+000	7.35553E-001	0.00000E+000	1.60925E+000	-2.67722E-003	12	...........	-327.56
	1568	78.45	1.61427E+000	7.50703E-001	0.00000E+000	1.61625E+000	-2.66955E-003	12	...........	-327.56
	1575	78.8	1.62127E+000	7.66458E-001	0.00000E+000	1.62325E+000	-2.66755E-003	12	...........	-327.56
	1582	79.15	1.62819E+000	7.80361E-001	0.00000E+000	1.63025E+000	-2.67722E-003	12	...........	-327.56
	1589	79.5	1.63519E+000	7.96578E-001	0.00000E+000	1.63725E+000	-2.66589E-003	12	...........	-327.56
	1596	79.85	1.64218E+000	8.14330E-001	0.00000E+000	1.64425E+000	-2.67255E-003	12	...........	-327.56
	1603	80.2	1.64918E+000	8.30760E-001	0.00000E+000	1.65125E+000	-2.67555E-003	12	...........	-327.56
	1610	80.55	1.65610E+000	8.46361E-001	0.00000E+000	1.65825E+000	-2.66489E-003	12	...........	-327.56
	1617	80.9	1.66308E+000	8.64155E-001	0.00000E+000	1.66525E+000	-2.67322E-003	12	...........	-327.56
	1624	81.25	1.67013E+000	8.80855E-001	0.00000E+000	1.67225E+000	-2.67122E-003	12	...........	-327.56
	1631	81.6	1.67700E+000	8.98079E-001	0.00000E+000	1.67925E+000	-2.67022E-003	12	...........	-327.56
	1638	81.95	1.68405E+000	9.13607E-001	0.00000E+000	1.68625E+000	-2.66922E-003	12	...........	-327.56
	1645	82.3	1.69103E+000	9.30313E-001	0.00000E+000	1.69325E+000	-2.67589E-003	12	...........	-327.56
	1652	82.65	1.69805E+000	9.46897E-001	0.00000E+000	1.70025E+000	-2.68022E-003	12	...........	-327.56
	1659	83	1.69104E+000	9.31851E-001	0.00000E+000	1.69325E+000	-2.66889E-003	12	...........	-327.56
	1666	83.35	1.68402E+000	9.19239E-001	0.00000E+000	1.68625E+000	-2.67455E-003	12	...........	-327.56
	1673	83.7	1.67703E+000	9.01290E-001	0.00000E+000	1.67925E+000	-2.68055E-003	12	...........	-327.56
	1680	84.05	1.67010E+000	8.89328E-001	0.00000E+000	1.67225E+000	-2.67389E-003	12	...........	-327.56
	1687	84.4	1.66307E+000	8.75970E-001	0.00000E+000	1.66525E+000	-2.66889E-003	12	...........	-327.56
	1694	84.75	1.65611E+000	8.61787E-001	0.00000E+000	1.65825E+000	-2.66655E-003	12	...........	-327.56
	1701	85.1	1.64916E+000	8.48556E-001	0.00000E+000	1.65125E+000	-2.67955E-003	12	...........	-327.56
	1708	85.45	1.64216E+000	8.34332E-001	0.00000E+000	1.64425E+000	-2.67722E-003	12	...........	-327.56
	1715	85.8	1.63515E+000	8.18454E-001	0.00000E+000	1.63725E+000	-2.67155E-003	12	...........	-327.56
	1722	86.15	1.62818E+000	8.02606E-001	0.00000E+000	1.63025E+000	-2.66655E-003	12	...........	-327.56
	1729	86.5	1.62125E+000	7.89231E-001	0.00000E+000	1.62325E+000	-2.67055E-003	12	...........	-327.56
	1736	86.85	1.61425E+000	7.74584E-001	0.00000E+000	1.61625E+000	-2.66522E-003	12	...........	-327.56
	1743	87.2	1.60721E+000	7.58955E-001	0.00000E+000	1.60925E+000	-2.67522E-003	12	...........	-327.56
	1750	87.55	1.60022E+000	7.44210E-001	0.00000E+000	1.60225E+000	-2.67389E-003	12	...........	-327.56
	1757	87.9	1.59332E+000	7.30167E-001	0.00000E+000	1.59525E+000	-2.66922E-003	12	...........	-327.56
	1764	88.25	1.58628E+000	7.15478E-001	0.00000E+000	1.58825E+000	-2.68155E-003	12	...........	-327.56
	1771	88.6	1.57929E+000	7.01808E-001	0.00000E+000	1.58125E+000	-2.66589E-003	12	...........	-327.56
	1778	88.95	1.57239E+000	6.87287E-001	0.00000E+000	1.57425E+000	-2.67722E-003	12	...........	-327.56
	1785	89.3	1.56538E+000	6.72326E-001	0.00000E+000	1.56725E+000	-2.66922E-003	12	...........	-327.56
	1792	89.65	1.55833E+000	6.57735E-001	0.00000E+000	1.56025E+000	-2.66722E-003	12	...........	-327.56
	1799	90	1.55134E+000	6.42071E-001	0.00000E+000	1.55325E+000	-2.66655E-003	12	...........	-327.56
	1806	90.35	1.54443E+000	6.27655E-001	0.00000E+000	1.54625E+000	-2.67855E-003	12	...........	-327.56
	1813	90.7	1.53744E+000	6.14547E-001	0.00000E+000	1.53925E+000	-2.66589E-003	12	...........	-327.56
	1820	91.05	1.53045E+000	6.00006E-001	0.00000E+000	1.53225E+000	-2.67289E-003	12	...........	-327.56
	1827	91.4	1.52344E+000	5.84143E-001	0.00000E+000	1.52525E+000	-2.67022E-003	12	...........	-327.56
	1834	91.75	1.51656E+000	5.71872E-001	0.00000E+000	1.51825E+000	-2.66789E-003	12	...........	-327.56
	1841	92.1	1.50951E+000	5.56758E-001	0.00000E+000	1.51125E+000	-2.67989E-003	12	...........	-327.56
	1848	92.45	1.50251E+000	5.43390E-001	0.00000E+000	1.50425E+000	-2.66855E-003	12	...........	-327.56
	1855	92.8	1.49559E+000	5.29235E-001	0.00000E+000	1.49725E+000	-2.68055E-003	12	...........	-327.56
	1862	93.15	1.48857E+000	5.16166E-001	0.00000E+000	1.49025E+000	-2.68189E-003	12	...........	-327.56
	1869	93.5	1.48154E+000	5.01873E-001	0.00000E+000	1.48325E+000	-2.67855E-003	12	...........	-327.56
	1876	93.85	1.47458E+000	4.87553E-001	0.00000E+000	1.47625E+000	-2.67189E-003	12	...........	-327.56
	1883	94.2	1.46764E+000	4.74478E-001	0.00000E+000	1.46925E+000	-2.68055E-003	12	...........	-327.56
	1890	94.55	1.46064E+000	4.61179E-001	0.00000E+000	1.46225E+000	-2.67789E-003	12	...........	-327.56
	1897	94.9	1.45363E+000	4.47983E-001	0.00000E+000	1.45525E+000	-2.67989E-003	12	...........	-327.56
	1904	95.25	1.44662E+000	4.34692E-001	0.00000E+000	1.44825E+000	-2.66855E-003	12	...........	-327.56
	1911	95.6	1.43971E+000	4.21658E-001	0.00000E+000	1.44125E+000	-2.67022E-003	12	...........	-327.56
	1918	95.95	1.43271E+000	4.08482E-001	0.00000E+000	1.43425E+000	-2.66689E-003	12	...........	-327.56
	1925	96.3	1.42571E+000	3.95135E-001	0.00000E+000	1.42725E+000	-2.67422E-003	12	...........	-327.56
	1932	96.65	1.41879E+000	3.83144E-001	0.00000E+000	1.42025E+000	-2.67055E-003	12	...........	-327.56
	1939	97	1.41177E+000	3.70432E-001	0.00000E+000	1.41325E+000	-2.68022E-003	12	...........	-327.56
	1946	97.35	1.40474E+000	3.57333E-001	0.00000E+000	1.40625E+000	-2.66789E-003	12	...........	-327.56
	1953	97.7	1.39776E+000	3.45091E-001	0.00000E+000	1.39925E+000	-2.67322E-003	12	...........	-327.56
	1960	98.05	1.39084E+000	3.33016E-001	0.00000E+000	1.39225E+000	-2.66622E-003	12	...........	-327.56
	1967	98.4	1.38383E+000	3.20899E-001	0.00000E+000	1.38525E+000	-2.67655E-003	12	...........	-327.56
	1974	98.75	1.37682E+000	3.08470E-001	0.00000E+000	1.37825E+000	-2.67289E-003	12	...........	-327.56
	1981	99.1	1.36982E+000	2.95765E-001	0.00000E+000	1.37125E+000	-2.67155E-003	12	...........	-327.56
	1988	99.45	1.36291E+000	2.84218E-001	0.00000E+000	1.36425E+000	-2.67355E-003	12	...........	-327.56
	1995	99.8	1.35588E+000	2.72129E-001	0.00000E+000	1.35725E+000	-2.67389E-003	12	...........	-327.56
	2002	100.15	1.34886E+000	2.60225E-001	0.00000E+000	1.35025E+000	-2.67222E-003	12	...........	-327.56
	2009	100.5	1.34194E+000	2.48052E-001	0.00000E+000	1.34325E+000	-2.67722E-003	12	...........	-327.56
	2016	100.85	1.33468E+000	2.35825E-001	0.00000E+000	1.33625E+000	-2.66989E-003	11	...........	-327.56
	2023	101.2	1.32772E+000	2.24395E-001	0.00000E+000	1.32925E+000	-2.68155E-003	11	...........	-327.56
[...]
	2324	116.25	1.02735E+000	1.60056E-002	0.00000E+000	1.02825E+000	-2.67622E-003	10	...........	-327.56
	2331	116.6	1.02032E+000	1.58539E-002	0.00000E+000	1.02125E+000	-2.67455E-003	10	...........	-327.56
	2338	116.95	1.01329E+000	1.56438E-002	0.00000E+000	1.01425E+000	-2.67722E-003	10	...........	-327.56
	2345	117.3	1.00639E+000	1.55470E-002	0.00000E+000	1.00725E+000	-2.67055E-003	10	...........	-327.56
	2352	117.65	9.99359E-001	1.53976E-002	0.00000E+000	1.00025E+000	-2.68155E-003	10	...........	-327.56
	2359	118	9.92320E-001	1.54297E-002	0.00000E+000	9.93250E-001	-2.67222E-003	10	...........	-327.56
	2366	118.35	9.85410E-001	1.53369E-002	0.00000E+000	9.86250E-001	-2.67289E-003	10	...........	-327.56
	2373	118.7	9.78411E-001	1.52424E-002	0.00000E+000	9.79250E-001	-2.66522E-003	10	...........	-327.56
	2380	119.05	9.71407E-001	1.52565E-002	0.00000E+000	9.72250E-001	-2.67122E-003	10	...........	-327.56
	2387	119.4	9.64367E-001	1.52836E-002	0.00000E+000	9.65250E-001	-2.68855E-003	10	...........	-327.56
	2394	119.75	9.57428E-001	1.52233E-002	0.00000E+000	9.58250E-001	-2.67555E-003	10	...........	-327.56
	2401	120.1	9.50414E-001	1.52087E-002	0.00000E+000	9.51250E-001	-2.67689E-003	10	...........	-327.56
	2408	120.45	9.43377E-001	1.56728E-002	0.00000E+000	9.44250E-001	-2.67755E-003	10	...........	-327.56
	2415	120.8	9.36310E-001	1.52743E-002	0.00000E+000	9.37250E-001	-2.66555E-003	10	...........	-327.56
	2422	121.15	9.29439E-001	1.53432E-002	0.00000E+000	9.30250E-001	-2.68122E-003	10	...........	-327.56
	2429	121.5	9.22410E-001	1.53445E-002	0.00000E+000	9.23250E-001	-2.68355E-003	10	...........	-327.56
	2436	121.85	9.15449E-001	1.55200E-002	0.00000E+000	9.16250E-001	-2.67855E-003	10	...........	-327.56
	2443	122.2	9.08502E-001	1.55343E-002	0.00000E+000	9.09250E-001	-2.67622E-003	10	...........	-327.56
	2450	122.55	9.01510E-001	1.56911E-002	0.00000E+000	9.02250E-001	-2.68289E-003	10	...........	-327.56
	2457	122.9	8.94476E-001	1.56317E-002	0.00000E+000	8.95250E-001	-2.67655E-003	10	...........	-327.56
	2464	123.25	8.87413E-001	1.59731E-002	0.00000E+000	8.88250E-001	-2.68389E-003	10	...........	-327.56
	2471	123.6	8.80497E-001	1.59046E-002	0.00000E+000	8.81250E-001	-2.66789E-003	10	...........	-327.56
	2478	123.95	8.73483E-001	1.61774E-002	0.00000E+000	8.74250E-001	-2.67255E-003	10	...........	-327.56
	2485	124.3	8.66497E-001	1.61460E-002	0.00000E+000	8.67250E-001	-2.67855E-003	10	...........	-327.56
	2492	124.65	8.59445E-001	1.61941E-002	0.00000E+000	8.60250E-001	-2.67355E-003	10	...........	-327.56
	2499	125	8.52528E-001	1.66619E-002	0.00000E+000	8.53250E-001	-2.67922E-003	10	...........	-327.56
	2506	125.35	8.45506E-001	1.65113E-002	0.00000E+000	8.46250E-001	-2.67889E-003	10	...........	-327.56
	2513	125.7	8.38510E-001	1.68495E-002	0.00000E+000	8.39250E-001	-2.68422E-003	10	...........	-327.56
	2520	126.05	8.31520E-001	1.68789E-002	0.00000E+000	8.32250E-001	-2.68889E-003	10	...........	-327.56
	2527	126.4	8.24519E-001	1.71262E-002	0.00000E+000	8.25250E-001	-2.66789E-003	10	...........	-327.56
	2534	126.75	8.17558E-001	1.70253E-002	0.00000E+000	8.18250E-001	-2.68022E-003	10	...........	-327.56
	2541	127.1	8.10523E-001	1.71168E-002	0.00000E+000	8.11250E-001	-2.68655E-003	10	...........	-327.56
	2548	127.45	8.03580E-001	1.70340E-002	0.00000E+000	8.04250E-001	-2.67789E-003	10	...........	-327.56
	2555	127.8	7.96567E-001	1.70528E-002	0.00000E+000	7.97250E-001	-2.67055E-003	10	...........	-327.56
	2562	128.15	7.89545E-001	1.70830E-002	0.00000E+000	7.90250E-001	-2.67922E-003	10	...........	-327.56
	2569	128.5	7.82572E-001	1.68574E-002	0.00000E+000	7.83250E-001	-2.67689E-003	10	...........	-327.56
	2576	128.85	7.75595E-001	1.68742E-002	0.00000E+000	7.76250E-001	-2.67789E-003	10	...........	-327.56
	2583	129.2	7.68576E-001	1.65415E-002	0.00000E+000	7.69250E-001	-2.67989E-003	10	...........	-327.56
	2590	129.55	7.61601E-001	1.61893E-002	0.00000E+000	7.62250E-001	-2.67889E-003	10	...........	-327.56
	2597	129.9	7.54640E-001	1.60538E-002	0.00000E+000	7.55250E-001	-2.67255E-003	10	...........	-327.56
	2604	130.25	7.47622E-001	1.56955E-002	0.00000E+000	7.48250E-001	-2.68055E-003	10	...........	-327.56
	2611	130.6	7.40616E-001	1.54841E-002	0.00000E+000	7.41250E-001	-2.67722E-003	10	...........	-327.56
	2618	130.95	7.33579E-001	1.57256E-002	0.00000E+000	7.34250E-001	-2.67989E-003	10	...........	-327.56
	2625	131.3	7.26645E-001	1.55965E-002	0.00000E+000	7.27250E-001	-2.67489E-003	10	...........	-327.56
	2632	131.65	7.19648E-001	1.54274E-002	0.00000E+000	7.20250E-001	-2.67255E-003	10	...........	-327.56
	2639	132	7.12680E-001	1.52895E-002	0.00000E+000	7.13250E-001	-2.67855E-003	10	...........	-327.56
	2646	132.35	7.05694E-001	1.49365E-002	0.00000E+000	7.06250E-001	-2.67522E-003	10	...........	-327.56
	2653	132.7	6.98716E-001	1.53466E-002	0.00000E+000	6.99250E-001	-2.67355E-003	10	...........	-327.56
	2660	133.05	6.91691E-001	1.48912E-002	0.00000E+000	6.92250E-001	-2.67922E-003	10	...........	-327.56
	2667	133.4	6.84696E-001	1.45282E-002	0.00000E+000	6.85250E-001	-2.67855E-003	10	...........	-327.56
	2674	133.75	6.77746E-001	1.47691E-002	0.00000E+000	6.78250E-001	-2.67989E-003	10	...........	-327.56
	2681	134.1	6.70736E-001	1.47144E-002	0.00000E+000	6.71250E-001	-2.68055E-003	10	...........	-327.56
	2688	134.45	6.63735E-001	1.35294E-002	0.00000E+000	6.64250E-001	-2.67622E-003	10	...........	-327.56
	2695	134.8	6.56720E-001	1.33469E-002	0.00000E+000	6.57250E-001	-2.67322E-003	10	...........	-327.56
	2702	135.15	6.49784E-001	1.32234E-002	0.00000E+000	6.50250E-001	-2.68089E-003	10	...........	-327.56
	2709	135.5	6.42771E-001	1.27687E-002	0.00000E+000	6.43250E-001	-2.67522E-003	10	...........	-327.56
	2716	135.85	6.35748E-001	1.25558E-002	0.00000E+000	6.36250E-001	-2.67589E-003	10	...........	-327.56
	2723	136.2	6.28747E-001	1.23470E-002	0.00000E+000	6.29250E-001	-2.67422E-003	10	...........	-327.56
	2730	136.55	6.21808E-001	1.20853E-002	0.00000E+000	6.22250E-001	-2.67955E-003	10	...........	-327.56
	2737	136.9	6.14781E-001	1.18345E-002	0.00000E+000	6.15250E-001	-2.67655E-003	10	...........	-327.56
	2744	137.25	6.07804E-001	1.15846E-002	0.00000E+000	6.08250E-001	-2.67322E-003	10	...........	-327.56
	2751	137.6	6.00869E-001	1.13022E-002	0.00000E+000	6.01250E-001	-2.66822E-003	10	...........	-327.56
	2758	137.95	5.93866E-001	1.13027E-002	0.00000E+000	5.94250E-001	-2.68189E-003	10	...........	-327.56
	2765	138.3	5.86835E-001	1.08246E-002	0.00000E+000	5.87250E-001	-2.67322E-003	10	...........	-327.56
	2772	138.65	5.79819E-001	1.04660E-002	0.00000E+000	5.80250E-001	-2.67522E-003	10	...........	-327.56
	2779	139	5.72896E-001	1.01775E-002	0.00000E+000	5.73250E-001	-2.67789E-003	10	...........	-327.56
	2786	139.35	5.65856E-001	9.85480E-003	0.00000E+000	5.66250E-001	-2.68455E-003	10	...........	-327.56
	2793	139.7	5.58866E-001	9.47194E-003	0.00000E+000	5.59250E-001	-2.67189E-003	10	...........	-327.56
	2800	140.05	5.51849E-001	9.22200E-003	0.00000E+000	5.52250E-001	-2.67555E-003	10	...........	-327.56
	2807	140.4	5.44937E-001	8.86396E-003	0.00000E+000	5.45250E-001	-2.67555E-003	10	...........	-327.56
	2814	140.75	5.37878E-001	8.43471E-003	0.00000E+000	5.38250E-001	-2.68255E-003	10	...........	-327.56
	2821	141.1	5.30896E-001	7.91793E-003	0.00000E+000	5.31250E-001	-2.68955E-003	10	...........	-327.56
	2828	141.45	5.23962E-001	7.69412E-003	0.00000E+000	5.24250E-001	-2.68422E-003	10	...........	-327.56
	2835	141.8	5.16983E-001	7.11515E-003	0.00000E+000	5.17250E-001	-2.67455E-003	10	...........	-327.56
	2842	142.15	5.09992E-001	6.59840E-003	0.00000E+000	5.10250E-001	-2.66722E-003	10	...........	-327.56
	2849	142.5	5.02971E-001	6.12007E-003	0.00000E+000	5.03250E-001	-2.67355E-003	10	...........	-327.56
	2856	142.85	4.96066E-001	5.64978E-003	0.00000E+000	4.96250E-001	-2.67022E-003	10	...........	-327.56
	2863	143.2	4.89032E-001	5.22045E-003	0.00000E+000	4.89250E-001	-2.67155E-003	10	...........	-327.56
	2870	143.55	4.82004E-001	4.85638E-003	0.00000E+000	4.82250E-001	-2.67255E-003	10	...........	-327.56
	2877	143.9	4.74997E-001	4.17926E-003	0.00000E+000	4.75250E-001	-2.66389E-003	10	...........	-327.56
	2884	144.25	4.68089E-001	3.60920E-003	0.00000E+000	4.68250E-001	-2.67889E-003	10	...........	-327.56
	2891	144.6	4.61071E-001	3.13143E-003	0.00000E+000	4.61250E-001	-2.67822E-003	10	...........	-327.56
	2898	144.95	4.54058E-001	2.58501E-003	0.00000E+000	4.54250E-001	-2.66322E-003	10	...........	-327.56
	2905	145.3	4.46360E-001	2.01102E-003	0.00000E+000	4.47250E-001	-2.67622E-003	9	...........	-327.56
	2912	145.65	4.39393E-001	1.67489E-003	0.00000E+000	4.40250E-001	-2.67555E-003	9	...........	-327.56
	2919	146	4.32415E-001	1.34942E-003	0.00000E+000	4.33250E-001	-2.67855E-003	9	...........	-327.56
	2926	146.35	4.25458E-001	9.27273E-004	0.00000E+000	4.26250E-001	-2.66822E-003	9	...........	-327.56
	2933	146.7	4.18581E-001	4.46636E-004	0.00000E+000	4.19250E-001	-2.67122E-003	9	...........	-327.56
	2940	147.05	4.11789E-001	-3.22659E-005	0.00000E+000	4.12250E-001	-2.69789E-003	7	....ih..i..	-327.56
	2947	147.4	4.04692E-001	-8.41010E-004	0.00000E+000	4.05250E-001	-2.66989E-003	9	...........	-327.56
	2954	147.75	3.97701E-001	-9.66316E-004	0.00000E+000	3.98250E-001	-2.67322E-003	9	...........	-327.56
	2961	148.1	3.90813E-001	-1.34529E-003	0.00000E+000	3.91250E-001	-2.67689E-003	9	...........	-327.56
	2968	148.45	3.83884E-001	-2.35758E-003	0.00000E+000	3.84250E-001	-2.66955E-003	9	...........	-327.56
	2975	148.8	3.77187E-001	-3.16707E-003	0.00000E+000	3.77250E-001	-2.66722E-003	10	...........	-327.56
	2982	149.15	3.70250E-001	-3.65014E-003	0.00000E+000	3.70250E-001	-2.67289E-003	10	...........	-327.56
	2989	149.5	3.63262E-001	-3.88961E-003	0.00000E+000	3.63250E-001	-2.67489E-003	10	...........	-327.56
	2996	149.85	3.56218E-001	-4.41690E-003	0.00000E+000	3.56250E-001	-2.67455E-003	10	...........	-327.56
	3003	150.2	3.49189E-001	-4.69277E-003	0.00000E+000	3.49250E-001	-2.67855E-003	10	...........	-327.56
	3010	150.55	3.42290E-001	-5.38482E-003	0.00000E+000	3.42250E-001	-2.67855E-003	10	...........	-327.56
	3017	150.9	3.35287E-001	-6.33422E-003	0.00000E+000	3.35250E-001	-2.68189E-003	10	...........	-327.56
	3024	151.25	3.28269E-001	-7.04465E-003	0.00000E+000	3.28250E-001	-2.67889E-003	10	...........	-327.56
	3031	151.6	3.21228E-001	-7.67713E-003	0.00000E+000	3.21250E-001	-2.67455E-003	10	...........	-327.56
	3038	151.95	3.14325E-001	-8.18457E-003	0.00000E+000	3.14250E-001	-2.68355E-003	10	...........	-327.56
	3045	152.3	3.07382E-001	-8.29736E-003	0.00000E+000	3.07250E-001	-2.67755E-003	10	...........	-327.56
	3052	152.65	3.00344E-001	-9.37219E-003	0.00000E+000	3.00250E-001	-2.67489E-003	10	...........	-327.56
	3059	153	2.93446E-001	-1.01067E-002	0.00000E+000	2.93250E-001	-2.67355E-003	10	...........	-327.56
	3066	153.35	2.86427E-001	-1.05327E-002	0.00000E+000	2.86250E-001	-2.68422E-003	10	...........	-327.56
	3073	153.7	2.79384E-001	-1.10763E-002	0.00000E+000	2.79250E-001	-2.67722E-003	10	...........	-327.56
	3080	154.05	2.72375E-001	-1.20917E-002	0.00000E+000	2.72250E-001	-2.67522E-003	10	...........	-327.56
	3087	154.4	2.65471E-001	-1.26955E-002	0.00000E+000	2.65250E-001	-2.68322E-003	10	...........	-327.56
	3094	154.75	2.58474E-001	-1.28221E-002	0.00000E+000	2.58250E-001	-2.69122E-003	10	...........	-327.56
	3101	155.1	2.51442E-001	-1.17082E-002	0.00000E+000	2.51250E-001	-2.66989E-003	10	...........	-327.56
	3108	155.45	2.44389E-001	-1.19942E-002	0.00000E+000	2.44250E-001	-2.67189E-003	10	...........	-327.56
	3115	155.8	2.37621E-001	-1.38823E-002	0.00000E+000	2.37250E-001	-2.67889E-003	10	...........	-327.56
	3122	156.15	2.30612E-001	-1.32962E-002	0.00000E+000	2.30250E-001	-2.68522E-003	10	...........	-327.56
	3129	156.5	2.23606E-001	-1.29465E-002	0.00000E+000	2.23250E-001	-2.67222E-003	10	...........	-327.56
	3136	156.85	2.16643E-001	-1.48745E-002	0.00000E+000	2.16250E-001	-2.67055E-003	10	...........	-327.56
	3143	157.2	2.09644E-001	-1.42615E-002	0.00000E+000	2.09250E-001	-2.66789E-003	10	...........	-327.56
	3150	157.55	2.02661E-001	-1.48477E-002	0.00000E+000	2.02250E-001	-2.66989E-003	10	...........	-327.56
	3157	157.9	1.95692E-001	-1.60258E-002	0.00000E+000	1.95250E-001	-2.67455E-003	10	...........	-327.56
	3164	158.25	1.88693E-001	-1.55508E-002	0.00000E+000	1.88250E-001	-2.67455E-003	10	...........	-327.56
	3171	158.6	1.81685E-001	-1.60051E-002	0.00000E+000	1.81250E-001	-2.66755E-003	10	...........	-327.56
	3178	158.95	1.74706E-001	-1.62120E-002	0.00000E+000	1.74250E-001	-2.67189E-003	10	...........	-327.56
	3185	159.3	1.67717E-001	-1.63415E-002	0.00000E+000	1.67250E-001	-2.67255E-003	10	...........	-327.56
	3192	159.65	1.60732E-001	-1.63494E-002	0.00000E+000	1.60250E-001	-2.67389E-003	10	...........	-327.56
	3199	160	1.53744E-001	-1.71428E-002	0.00000E+000	1.53250E-001	-2.68455E-003	10	...........	-327.56
	3206	160.35	1.46733E-001	-1.61674E-002	0.00000E+000	1.46250E-001	-2.67089E-003	10	...........	-327.56
	3213	160.7	1.39766E-001	-1.65321E-002	0.00000E+000	1.39250E-001	-2.67122E-003	10	...........	-327.56
	3220	161.05	1.32767E-001	-1.65511E-002	0.00000E+000	1.32250E-001	-2.67689E-003	10	...........	-327.56
	3227	161.4	1.25763E-001	-1.63615E-002	0.00000E+000	1.25250E-001	-2.67155E-003	10	...........	-327.56
	3234	161.75	1.18766E-001	-1.62496E-002	0.00000E+000	1.18250E-001	-2.67822E-003	10	...........	-327.56
	3241	162.1	1.11788E-001	-1.74012E-002	0.00000E+000	1.11250E-001	-2.67322E-003	10	...........	-327.56
	3248	162.45	1.04808E-001	-1.68183E-002	0.00000E+000	1.04250E-001	-2.68655E-003	10	...........	-327.56
	3255	162.8	9.77799E-002	-1.53168E-002	0.00000E+000	9.72500E-002	-2.67122E-003	10	...........	-327.56
	3262	163.15	9.08212E-002	-1.68947E-002	0.00000E+000	9.02500E-002	-2.67722E-003	10	...........	-327.56
	3269	163.5	8.38361E-002	-1.71604E-002	0.00000E+000	8.32500E-002	-2.66955E-003	10	...........	-327.56
	3276	163.85	7.68195E-002	-1.56780E-002	0.00000E+000	7.62500E-002	-2.68589E-003	10	...........	-327.56
	3283	164.2	6.98354E-002	-1.57818E-002	0.00000E+000	6.92500E-002	-2.68155E-003	10	...........	-327.56
	3290	164.55	6.28408E-002	-1.61526E-002	0.00000E+000	6.22500E-002	-2.67822E-003	10	...........	-327.56
	3297	164.9	5.58335E-002	-1.62610E-002	0.00000E+000	5.52500E-002	-2.67455E-003	10	...........	-327.56
	3304	165.25	4.88431E-002	-1.56361E-002	0.00000E+000	4.82500E-002	-2.67555E-003	10	...........	-327.56
	3311	165.6	4.18498E-002	-1.57318E-002	0.00000E+000	4.12501E-002	-2.67522E-003	10	...........	-327.56
	3318	165.95	3.48546E-002	-1.57200E-002	0.00000E+000	3.42500E-002	-2.67489E-003	10	...........	-327.56
	3325	166.3	2.78516E-002	-1.45666E-002	0.00000E+000	2.72501E-002	-2.67189E-003	10	...........	-327.56
	3332	166.65	2.09136E-002	-1.52766E-002	0.00000E+000	2.02500E-002	-2.67389E-003	10	...........	-327.56
	3339	167	1.38959E-002	-1.49702E-002	0.00000E+000	1.32501E-002	-2.68555E-003	10	...........	-327.56
	3346	167.35	6.91022E-003	-1.43805E-002	0.00000E+000	6.25002E-003	-2.68622E-003	10	...........	-327.56
	3352	167.65	9.15363E-004	-1.35359E-002	0.00000E+000	2.50041E-004	-2.67655E-003	10	...........	-327.56
CURVE2	TABLE
	Pt	T	Vf	Im	Vu	Sig	Ach	IERange	Over	Temp
	#	s	V vs. Ref.	A	V	V	V	#	bits	deg C
	3353	167.7	1.89866E-003	-1.32027E-002	0.00000E+000	1.25003E-003	-2.67722E-003	10	...........	-327.56
	3354	167.75	2.88525E-003	-1.30407E-002	0.00000E+000	2.25002E-003	-2.67155E-003	10	...........	-327.56
	3355	167.8	3.87303E-003	-1.27855E-002	0.00000E+000	3.25006E-003	-2.67389E-003	10	...........	-327.56
	3356	167.85	4.88165E-003	-1.25325E-002	0.00000E+000	4.25005E-003	-2.68089E-003	10	...........	-327.56
	3357	167.9	5.88803E-003	-1.24438E-002	0.00000E+000	5.25004E-003	-2.67855E-003	10	...........	-327.56
	3358	167.95	6.90713E-003	-1.33248E-002	0.00000E+000	6.25002E-003	-2.67155E-003	10	...........	-327.56
	3359	168	7.89568E-003	-1.31360E-002	0.00000E+000	7.25007E-003	-2.68022E-003	10	...........	-327.56
	3360	168.05	8.89405E-003	-1.28551E-002	0.00000E+000	8.25006E-003	-2.66955E-003	10	...........	-327.56
	3361	168.1	9.88285E-003	-1.26347E-002	0.00000E+000	9.25004E-003	-2.68022E-003	10	...........	-327.56
	3362	168.15	1.08742E-002	-1.23360E-002	0.00000E+000	1.02500E-002	-2.68222E-003	10	...........	-327.56
	3363	168.2	1.18738E-002	-1.24669E-002	0.00000E+000	1.12500E-002	-2.68189E-003	10	...........	-327.56
	3364	168.25	1.28729E-002	-1.19871E-002	0.00000E+000	1.22501E-002	-2.68489E-003	10	...........	-327.56
	3365	168.3	1.38652E-002	-1.17662E-002	0.00000E+000	1.32501E-002	-2.67789E-003	10	...........	-327.56
	3366	168.35	1.48611E-002	-1.15615E-002	0.00000E+000	1.42500E-002	-2.67389E-003	10	...........	-327.56
	3367	168.4	1.58528E-002	-1.12392E-002	0.00000E+000	1.52500E-002	-2.68055E-003	10	...........	-327.56
	3368	168.45	1.68534E-002	-1.10440E-002	0.00000E+000	1.62501E-002	-2.67955E-003	10	...........	-327.56
	3369	168.5	1.78516E-002	-1.08053E-002	0.00000E+000	1.72501E-002	-2.68522E-003	10	...........	-327.56
	3370	168.55	1.88535E-002	-1.05780E-002	0.00000E+000	1.82500E-002	-2.68355E-003	10	...........	-327.56
	3371	168.6	1.98469E-002	-1.03470E-002	0.00000E+000	1.92500E-002	-2.68322E-003	10	...........	-327.56
	3372	168.65	2.08366E-002	-9.80002E-003	0.00000E+000	2.02500E-002	-2.68322E-003	10	...........	-327.56
	3373	168.7	2.18326E-002	-9.56460E-003	0.00000E+000	2.12501E-002	-2.66822E-003	10	...........	-327.56
	3374	168.75	2.28306E-002	-9.43997E-003	0.00000E+000	2.22501E-002	-2.68389E-003	10	...........	-327.56
	3375	168.8	2.38220E-002	-9.21959E-003	0.00000E+000	2.32500E-002	-2.67322E-003	10	...........	-327.56
	3376	168.85	2.48184E-002	-8.99597E-003	0.00000E+000	2.42500E-002	-2.67789E-003	10	...........	-327.56
	3377	168.9	2.58144E-002	-8.94389E-003	0.00000E+000	2.52500E-002	-2.67355E-003	10	...........	-327.56
	3378	168.95	2.68126E-002	-8.91426E-003	0.00000E+000	2.62501E-002	-2.66889E-003	10	...........	-327.56
	3379	169	2.77911E-002	-8.60996E-003	0.00000E+000	2.72501E-002	-2.67722E-003	10	...........	-327.56
	3380	169.05	2.87927E-002	-8.44594E-003	0.00000E+000	2.82500E-002	-2.67389E-003	10	...........	-327.56
	3381	169.1	2.97877E-002	-8.33295E-003	0.00000E+000	2.92500E-002	-2.67222E-003	10	...........	-327.56
	3382	169.15	3.07836E-002	-8.36241E-003	0.00000E+000	3.02501E-002	-2.68222E-003	10	...........	-327.56
	3383	169.2	3.17778E-002	-8.25803E-003	0.00000E+000	3.12501E-002	-2.68022E-003	10	...........	-327.56
	3384	169.25	3.27715E-002	-8.08501E-003	0.00000E+000	3.22500E-002	-2.67155E-003	10	...........	-327.56
	3385	169.3	3.37591E-002	-7.73875E-003	0.00000E+000	3.32500E-002	-2.67222E-003	10	...........	-327.56
	3386	169.35	3.47560E-002	-7.53845E-003	0.00000E+000	3.42500E-002	-2.67955E-003	10	...........	-327.56
	3387	169.4	3.57580E-002	-7.72611E-003	0.00000E+000	3.52501E-002	-2.67789E-003	10	...........	-327.56
	3388	169.45	3.67643E-002	-7.60070E-003	0.00000E+000	3.62501E-002	-2.66722E-003	10	...........	-327.56
	3389	169.5	3.77511E-002	-7.35076E-003	0.00000E+000	3.72500E-002	-2.67922E-003	10	...........	-327.56
	3390	169.55	3.87556E-002	-7.22213E-003	0.00000E+000	3.82500E-002	-2.68455E-003	10	...........	-327.56
	3391	169.6	3.97457E-002	-6.93257E-003	0.00000E+000	3.92500E-002	-2.68455E-003	10	...........	-327.56
	3392	169.65	4.07310E-002	-6.74691E-003	0.00000E+000	4.02501E-002	-2.67555E-003	10	...........	-327.56
	3393	169.7	4.17331E-002	-6.64474E-003	0.00000E+000	4.12501E-002	-2.67455E-003	10	...........	-327.56
	3394	169.75	4.27232E-002	-6.13201E-003	0.00000E+000	4.22500E-002	-2.68155E-003	10	...........	-327.56
	3395	169.8	4.37264E-002	-5.94577E-003	0.00000E+000	4.32500E-002	-2.67622E-003	10	...........	-327.56
	3396	169.85	4.47320E-002	-5.81780E-003	0.00000E+000	4.42501E-002	-2.67255E-003	10	...........	-327.56
	3397	169.9	4.57317E-002	-5.91839E-003	0.00000E+000	4.52501E-002	-2.68089E-003	10	...........	-327.56
	3398	169.95	4.67308E-002	-5.93883E-003	0.00000E+000	4.62500E-002	-2.67022E-003	10	...........	-327.56
	3399	170	4.77153E-002	-5.73891E-003	0.00000E+000	4.72500E-002	-2.66922E-003	10	...........	-327.56