File: testing/data/240902_21_MCL13_cspWE_CV2_750C_CO2.DTA
EXPLAIN
TAG	CV
TITLE	LABEL	Cyclic Voltammetry	Test Identifier
DATE	LABEL	9/3/2024	Date
TIME	LABEL	21:04:05	Time
NOTES	NOTES	5	Notes...
	cswWE - carbon steel wire
cspWE - carbon steel plate 2x2 tapered

Carbon steel plate counter electrode
Carbon steel wire reference electrode
PSTAT	PSTAT	REF3000-48128	Potentiostat
VINIT	POTEN	0.00000E+000	T	Initial E (V)
VLIMIT1	POTEN	1.70000E+000	F	Scan Limit 1 (V)
VLIMIT2	POTEN	-1.00000E+000	F	Scan Limit 2 (V)
VFINAL	POTEN	1.70000E+000	F	Final E (V)
SCANRATE	QUANT	2.00000E+000	Scan Rate (mV/s)
STEPSIZE	QUANT	1.00000E+000	Step Size (mV)
CYCLES	IQUANT	2	Cycles (#)
IMODE	SELECTOR	0	I/E Range Mode
IRANGE	QUANT	3.00000E-001	Max Current (mA)
AREA	QUANT	1.00000E+000	Sample Area (cm^2)
EQDELAY	QUANT	0.00000E+000	Equil. Time (s)
IRCOMP	SELECTOR	0	IRComp
PFCOR	QUANT	5.00000E+001	PF Corr. (ohm)
SAMPLINGMODE	SELECTOR	1	Sampling Mode
EOC	QUANT	0.4463651	Open Circuit (V)
ELECTRODETYPE	SELECTOR	0	Electrode Type
STRIPPING	TOGGLE	F	Used for Stripping
SEQUENCER	TOGGLE	TRUE	Run as Sequence
PSTATMODEL	IQUANT	5	Pstat Model
PSTATSECTION	LABEL	REF3000-48128	Pstat Section
PSTATSERIALNO	LABEL	48128	Pstat Serial Number
CTRLMODE	IQUANT	1	Control Mode
ELECTROMETER	IQUANT	0	RE=0 or CS=1
IESTAB	IQUANT	2	I/E Stability
CASPEED	IQUANT	4	Control Amp Speed
CONVENTION	IQUANT	1	Current Convention
ICHRANGE	IQUANT	2	Ich Range
ICHRANGEMODE	TOGGLE	F	Ich Auto Range
ICHOFFSETENABLE	TOGGLE	F	Ich Offset Enable
ICHOFFSET	QUANT	0	Ich Offset (V)
ICHFILTER	IQUANT	3	Ich Filter
VCHRANGE	IQUANT	2	Vch Range
VCHRANGEMODE	TOGGLE	F	Vch Auto Range
VCHOFFSETENABLE	TOGGLE	F	Vch Offset Enable
VCHOFFSET	QUANT	0	Vch Offset (V)
VCHFILTER	IQUANT	3	Vch Filter
ACHRANGE	IQUANT	2	Ach Range
ACHOFFSETENABLE	TOGGLE	F	Ach Offset Enable
ACHOFFSET	QUANT	0	Ach Offset (V)
ACHFILTER	IQUANT	1	Ach Filter
IERANGELOWERLIMIT	IQUANT	2	I/E Range Lower Limit
IERANGEMODE	TOGGLE	T	I/E AutoRange
IERANGE	IQUANT	9	I/E Range
POSFEEDENABLE	TOGGLE	F	Positive Feedback IR Comp
POSFEEDRESISTANCE	QUANT	0	Positive Feedback Resistance (ohm)
ACHSELECT	IQUANT	4	Ach Select
SENSECABLEID	IQUANT	14	Sense Cable ID
PWRCABLEID	IQUANT	7	Power Cable ID
DCCALDATE	LABEL	8/16/2024	DC Calibration Date
ACCALDATE	LABEL	8/16/2024	AC Calibration Date
THERMOSELECT	IQUANT	1	Thermo Select
FRAMEWORKVERSION	LABEL	7.10.3	Framework Version
INSTRUMENTVERSION	LABEL	4.91	Instrument Version
COMMVERSION	LABEL	5.10	Communications Version
CPUPLDVERSION	LABEL	6.00	CPU PLD Version
CTRLPLDVERSION	LABEL	3.21	CTRL PLD Version
PSTATPLDVERSION	LABEL	0.00	PSTAT PLD Version
COMPLIANCEVOLTAGE	IQUANT	0	Compliance Voltage
CURVE1	TABLE
	Pt	T	Vf	Im	Vu	Sig	Ach	IERange	Over	Temp
	#	s	V vs. Ref.	A	V	V	V	#	bits	deg C
	0	0.5	4.45541E-001	2.78202E-003	0.00000E+000	4.46350E-001	-1.05155E-004	9	...........	-327.56
	8	4.5	4.53584E-001	1.77038E-002	0.00000E+000	4.54350E-001	-1.06588E-004	10	...........	-327.56
	16	8.5	4.61791E-001	2.99592E-002	0.00000E+000	4.62350E-001	-1.09721E-004	11	...........	-327.56
	24	12.5	4.69804E-001	3.95669E-002	0.00000E+000	4.70350E-001	-1.08921E-004	11	...........	-327.56
	32	16.5	4.77722E-001	4.77310E-002	0.00000E+000	4.78350E-001	-1.09988E-004	11	...........	-327.56
	40	20.5	4.85725E-001	5.55635E-002	0.00000E+000	4.86350E-001	-1.11555E-004	11	...........	-327.56
	48	24.5	4.93748E-001	6.26362E-002	0.00000E+000	4.94350E-001	-1.25188E-004	11	...........	-327.56
	56	28.5	5.01633E-001	6.89072E-002	0.00000E+000	5.02350E-001	-1.21521E-004	11	...........	-327.56
	64	32.5	5.09674E-001	7.47178E-002	0.00000E+000	5.10350E-001	-1.23921E-004	11	...........	-327.56
	72	36.5	5.17659E-001	7.88402E-002	0.00000E+000	5.18350E-001	-1.21888E-004	11	...........	-327.56
	80	40.5	5.25540E-001	8.29195E-002	0.00000E+000	5.26350E-001	-1.20488E-004	11	...........	-327.56
	88	44.5	5.33581E-001	8.62698E-002	0.00000E+000	5.34350E-001	-1.17921E-004	11	...........	-327.56
	96	48.5	5.41613E-001	9.03023E-002	0.00000E+000	5.42350E-001	-1.20888E-004	11	...........	-327.56
	104	52.5	5.49620E-001	9.39279E-002	0.00000E+000	5.50350E-001	-1.22755E-004	11	...........	-327.56
	112	56.5	5.57542E-001	9.69087E-002	0.00000E+000	5.58350E-001	-1.20288E-004	11	...........	-327.56
	120	60.5	5.65572E-001	1.00076E-001	0.00000E+000	5.66350E-001	-1.19821E-004	11	...........	-327.56
	128	64.5	5.73576E-001	1.02801E-001	0.00000E+000	5.74350E-001	-1.20621E-004	11	...........	-327.56
	136	68.5	5.81511E-001	1.05867E-001	0.00000E+000	5.82350E-001	-1.18055E-004	11	...........	-327.56
	144	72.5	5.89532E-001	1.08395E-001	0.00000E+000	5.90350E-001	-1.19955E-004	11	...........	-327.56
	152	76.5	5.97557E-001	1.10968E-001	0.00000E+000	5.98350E-001	-1.24355E-004	11	...........	-327.56
	160	80.5	6.05482E-001	1.13699E-001	0.00000E+000	6.06350E-001	-1.17588E-004	11	...........	-327.56
	168	84.5	6.13501E-001	1.15841E-001	0.00000E+000	6.14350E-001	-1.18421E-004	11	...........	-327.56
	176	88.5	6.21521E-001	1.17588E-001	0.00000E+000	6.22350E-001	-1.16288E-004	11	...........	-327.56
	184	92.5	6.29421E-001	1.18590E-001	0.00000E+000	6.30350E-001	-1.20488E-004	11	...........	-327.56
	192	96.5	6.37458E-001	1.19569E-001	0.00000E+000	6.38350E-001	-1.15421E-004	11	...........	-327.56
	200	100.5	6.45504E-001	1.20388E-001	0.00000E+000	6.46350E-001	-1.17688E-004	11	...........	-327.56
	208	104.5	6.53402E-001	1.20483E-001	0.00000E+000	6.54350E-001	-1.21488E-004	11	...........	-327.56
	216	108.5	6.61435E-001	1.21059E-001	0.00000E+000	6.62350E-001	-1.17788E-004	11	...........	-327.56
	224	112.5	6.69473E-001	1.20209E-001	0.00000E+000	6.70350E-001	-1.18488E-004	11	...........	-327.56
	232	116.5	6.77484E-001	1.19618E-001	0.00000E+000	6.78350E-001	-1.15855E-004	11	...........	-327.56
	240	120.5	6.85412E-001	1.19479E-001	0.00000E+000	6.86350E-001	-1.17221E-004	11	...........	-327.56
	248	124.5	6.93453E-001	1.18490E-001	0.00000E+000	6.94350E-001	-1.17621E-004	11	...........	-327.56
	256	128.5	7.01477E-001	1.16999E-001	0.00000E+000	7.02350E-001	-1.14455E-004	11	...........	-327.56
	264	132.5	7.09414E-001	1.15767E-001	0.00000E+000	7.10350E-001	-1.19588E-004	11	...........	-327.56
	272	136.5	7.17387E-001	1.14428E-001	0.00000E+000	7.18350E-001	-1.16888E-004	11	...........	-327.56
	280	140.5	7.25432E-001	1.12145E-001	0.00000E+000	7.26350E-001	-1.19021E-004	11	...........	-327.56
	288	144.5	7.33362E-001	1.10466E-001	0.00000E+000	7.34350E-001	-1.19255E-004	11	...........	-327.56
	296	148.5	7.41383E-001	1.08871E-001	0.00000E+000	7.42350E-001	-1.17688E-004	11	...........	-327.56
	304	152.5	7.49429E-001	1.06476E-001	0.00000E+000	7.50350E-001	-1.15988E-004	11	...........	-327.56
	312	156.5	7.57338E-001	1.04710E-001	0.00000E+000	7.58350E-001	-1.21555E-004	11	...........	-327.56
	320	160.5	7.65372E-001	1.02841E-001	0.00000E+000	7.66350E-001	-1.23388E-004	11	...........	-327.56
	328	164.5	7.73422E-001	1.01110E-001	0.00000E+000	7.74350E-001	-1.20921E-004	11	...........	-327.56
	336	168.5	7.81312E-001	9.95467E-002	0.00000E+000	7.82350E-001	-1.21721E-004	11	...........	-327.56
	344	172.5	7.89366E-001	9.74799E-002	0.00000E+000	7.90350E-001	-1.19155E-004	11	...........	-327.56
	352	176.5	7.97406E-001	9.61132E-002	0.00000E+000	7.98350E-001	-1.18855E-004	11	...........	-327.56
	360	180.5	8.05420E-001	9.48377E-002	0.00000E+000	8.06350E-001	-1.17121E-004	11	...........	-327.56
	368	184.5	8.13367E-001	9.36138E-002	0.00000E+000	8.14350E-001	-1.19421E-004	11	...........	-327.56
	376	188.5	8.21341E-001	9.25375E-002	0.00000E+000	8.22350E-001	-1.21788E-004	11	...........	-327.56
	384	192.5	8.29367E-001	9.18524E-002	0.00000E+000	8.30350E-001	-1.21455E-004	11	...........	-327.56
	392	196.5	8.37280E-001	9.04305E-002	0.00000E+000	8.38350E-001	-1.17755E-004	11	...........	-327.56
	400	200.5	8.45328E-001	8.99727E-002	0.00000E+000	8.46350E-001	-1.19221E-004	11	...........	-327.56
	408	204.5	8.53343E-001	8.88572E-002	0.00000E+000	8.54350E-001	-1.19621E-004	11	...........	-327.56
	416	208.5	8.61274E-001	8.81131E-002	0.00000E+000	8.62350E-001	-1.23221E-004	11	...........	-327.56
	424	212.5	8.69304E-001	8.77617E-002	0.00000E+000	8.70350E-001	-1.18521E-004	11	...........	-327.56
	432	216.5	8.77335E-001	8.76843E-002	0.00000E+000	8.78350E-001	-1.18355E-004	11	...........	-327.56
	440	220.5	8.85229E-001	8.70960E-002	0.00000E+000	8.86350E-001	-1.17855E-004	11	...........	-327.56
	448	224.5	8.93253E-001	8.70038E-002	0.00000E+000	8.94350E-001	-1.16388E-004	11	...........	-327.56
	456	228.5	9.01326E-001	8.66006E-002	0.00000E+000	9.02350E-001	-1.16755E-004	11	...........	-327.56
	464	232.5	9.09202E-001	8.66175E-002	0.00000E+000	9.10350E-001	-1.19521E-004	11	...........	-327.56
	472	236.5	9.17263E-001	8.72823E-002	0.00000E+000	9.18350E-001	-1.19655E-004	11	...........	-327.56
	480	240.5	9.25249E-001	8.69650E-002	0.00000E+000	9.26350E-001	-1.14121E-004	11	...........	-327.56
	488	244.5	9.33252E-001	8.76804E-002	0.00000E+000	9.34350E-001	-1.15521E-004	11	...........	-327.56
	496	248.5	9.41175E-001	8.84735E-002	0.00000E+000	9.42350E-001	-1.17621E-004	11	...........	-327.56
	504	252.5	9.49221E-001	8.88752E-002	0.00000E+000	9.50350E-001	-1.20221E-004	11	...........	-327.56
	512	256.5	9.57248E-001	9.00414E-002	0.00000E+000	9.58350E-001	-1.20421E-004	11	...........	-327.56
	520	260.5	9.65176E-001	9.10853E-002	0.00000E+000	9.66350E-001	-1.17988E-004	11	...........	-327.56
	528	264.5	9.73183E-001	9.12542E-002	0.00000E+000	9.74350E-001	-1.19588E-004	11	...........	-327.56
	536	268.5	9.81208E-001	9.32921E-002	0.00000E+000	9.82350E-001	-1.15155E-004	11	...........	-327.56
	544	272.5	9.89141E-001	9.61780E-002	0.00000E+000	9.90350E-001	-1.18855E-004	11	...........	-327.56
	552	276.5	9.97146E-001	9.78981E-002	0.00000E+000	9.98350E-001	-1.19455E-004	11	...........	-327.56
	560	280.5	1.00519E+000	1.00977E-001	0.00000E+000	1.00635E+000	-1.19288E-004	11	...........	-327.56
	568	284.5	1.01309E+000	1.04826E-001	0.00000E+000	1.01435E+000	-1.22955E-004	11	...........	-327.56
	576	288.5	1.02112E+000	1.07343E-001	0.00000E+000	1.02235E+000	-1.15521E-004	11	...........	-327.56
	584	292.5	1.02914E+000	1.11794E-001	0.00000E+000	1.03035E+000	-1.14955E-004	11	...........	-327.56
	592	296.5	1.03703E+000	1.15750E-001	0.00000E+000	1.03835E+000	-1.20188E-004	11	...........	-327.56
	600	300.5	1.04506E+000	1.20937E-001	0.00000E+000	1.04635E+000	-1.17288E-004	11	...........	-327.56
	608	304.5	1.05310E+000	1.27130E-001	0.00000E+000	1.05435E+000	-1.15255E-004	11	...........	-327.56
	616	308.5	1.06109E+000	1.33247E-001	0.00000E+000	1.06235E+000	-1.16688E-004	11	...........	-327.56
	624	312.5	1.06902E+000	1.39500E-001	0.00000E+000	1.07035E+000	-1.19455E-004	11	...........	-327.56
	632	316.5	1.07702E+000	1.47423E-001	0.00000E+000	1.07835E+000	-1.17988E-004	11	...........	-327.56
	640	320.5	1.08504E+000	1.55457E-001	0.00000E+000	1.08635E+000	-1.14855E-004	11	...........	-327.56
	648	324.5	1.09296E+000	1.65479E-001	0.00000E+000	1.09435E+000	-1.19521E-004	11	...........	-327.56
	656	328.5	1.10095E+000	1.74321E-001	0.00000E+000	1.10235E+000	-1.15955E-004	11	...........	-327.56
	664	332.5	1.10897E+000	1.83091E-001	0.00000E+000	1.11035E+000	-1.17088E-004	11	...........	-327.56
	672	336.5	1.11685E+000	1.93138E-001	0.00000E+000	1.11835E+000	-1.16955E-004	11	...........	-327.56
	680	340.5	1.12489E+000	2.03564E-001	0.00000E+000	1.12635E+000	-1.16988E-004	11	...........	-327.56
	688	344.5	1.13285E+000	2.13221E-001	0.00000E+000	1.13435E+000	-1.17621E-004	11	...........	-327.56
	696	348.5	1.14075E+000	2.21056E-001	0.00000E+000	1.14235E+000	-1.18755E-004	11	...........	-327.56
	704	352.5	1.14876E+000	2.31443E-001	0.00000E+000	1.15035E+000	-1.12221E-004	11	...........	-327.56
	712	356.5	1.15678E+000	2.41576E-001	0.00000E+000	1.15835E+000	-1.18121E-004	11	...........	-327.56
	720	360.5	1.16476E+000	2.52047E-001	0.00000E+000	1.16635E+000	-1.14055E-004	11	...........	-327.56
	728	364.5	1.17273E+000	2.63913E-001	0.00000E+000	1.17435E+000	-1.16355E-004	11	...........	-327.56
	736	368.5	1.18101E+000	2.76235E-001	0.00000E+000	1.18235E+000	-1.17721E-004	12	...........	-327.56
	744	372.5	1.18900E+000	2.86594E-001	0.00000E+000	1.19035E+000	-1.17088E-004	12	...........	-327.56
	752	376.5	1.19694E+000	2.98900E-001	0.00000E+000	1.19835E+000	-1.22021E-004	12	...........	-327.56
	760	380.5	1.20496E+000	3.11743E-001	0.00000E+000	1.20635E+000	-1.22855E-004	12	...........	-327.56
	768	384.5	1.21296E+000	3.24775E-001	0.00000E+000	1.21435E+000	-1.20188E-004	12	...........	-327.56
	776	388.5	1.22088E+000	3.38774E-001	0.00000E+000	1.22235E+000	-1.18521E-004	12	...........	-327.56
	784	392.5	1.22890E+000	3.52349E-001	0.00000E+000	1.23035E+000	-1.21521E-004	12	...........	-327.56
	792	396.5	1.23694E+000	3.66629E-001	0.00000E+000	1.23835E+000	-1.20455E-004	12	...........	-327.56
	800	400.5	1.24484E+000	3.83166E-001	0.00000E+000	1.24635E+000	-1.22388E-004	12	...........	-327.56
	808	404.5	1.25285E+000	3.99800E-001	0.00000E+000	1.25435E+000	-1.23288E-004	12	...........	-327.56
	816	408.5	1.26089E+000	4.17907E-001	0.00000E+000	1.26235E+000	-1.18921E-004	12	...........	-327.56
	824	412.5	1.26876E+000	4.36762E-001	0.00000E+000	1.27035E+000	-1.15155E-004	12	...........	-327.56
	832	416.5	1.27679E+000	4.57057E-001	0.00000E+000	1.27835E+000	-1.18688E-004	12	...........	-327.56
	840	420.5	1.28481E+000	4.78956E-001	0.00000E+000	1.28635E+000	-1.21055E-004	12	...........	-327.56
	848	424.5	1.29279E+000	5.02157E-001	0.00000E+000	1.29435E+000	-1.18255E-004	12	...........	-327.56
	856	428.5	1.30074E+000	5.26636E-001	0.00000E+000	1.30235E+000	-1.19821E-004	12	...........	-327.56
	864	432.5	1.30875E+000	5.52598E-001	0.00000E+000	1.31035E+000	-1.17855E-004	12	...........	-327.56
	872	436.5	1.31674E+000	5.80008E-001	0.00000E+000	1.31835E+000	-1.21388E-004	12	...........	-327.56
	880	440.5	1.32472E+000	6.07512E-001	0.00000E+000	1.32635E+000	-1.20755E-004	12	...........	-327.56
	888	444.5	1.33268E+000	6.36384E-001	0.00000E+000	1.33435E+000	-1.17588E-004	12	...........	-327.56
	896	448.5	1.34065E+000	6.65633E-001	0.00000E+000	1.34235E+000	-1.17788E-004	12	...........	-327.56
	904	452.5	1.34859E+000	6.95025E-001	0.00000E+000	1.35035E+000	-1.22855E-004	12	...........	-327.56
	912	456.5	1.35656E+000	7.22186E-001	0.00000E+000	1.35835E+000	-1.18455E-004	12	...........	-327.56
	920	460.5	1.36456E+000	7.52463E-001	0.00000E+000	1.36635E+000	-1.17788E-004	12	...........	-327.56
	928	464.5	1.37245E+000	7.81906E-001	0.00000E+000	1.37435E+000	-1.20055E-004	12	...........	-327.56
	936	468.5	1.38046E+000	8.14734E-001	0.00000E+000	1.38235E+000	-1.17855E-004	12	...........	-327.56
	944	472.5	1.38848E+000	8.45038E-001	0.00000E+000	1.39035E+000	-1.22055E-004	12	...........	-327.56
	952	476.5	1.39636E+000	8.77801E-001	0.00000E+000	1.39835E+000	-1.21788E-004	12	...........	-327.56
	960	480.5	1.40438E+000	9.09992E-001	0.00000E+000	1.40635E+000	-1.20888E-004	12	...........	-327.56
	968	484.5	1.41241E+000	9.37479E-001	0.00000E+000	1.41435E+000	-1.17421E-004	12	...........	-327.56
	976	488.5	1.42038E+000	9.71180E-001	0.00000E+000	1.42235E+000	-1.22455E-004	12	...........	-327.56
	984	492.5	1.42831E+000	1.00133E+000	0.00000E+000	1.43035E+000	-1.20121E-004	12	...........	-327.56
	992	496.5	1.43632E+000	1.02808E+000	0.00000E+000	1.43835E+000	-1.16288E-004	12	...........	-327.56
	1000	500.5	1.44430E+000	1.05660E+000	0.00000E+000	1.44635E+000	-1.22121E-004	12	...........	-327.56
	1008	504.5	1.45223E+000	1.08710E+000	0.00000E+000	1.45435E+000	-1.18621E-004	12	...........	-327.56
	1016	508.5	1.46024E+000	1.11626E+000	0.00000E+000	1.46235E+000	-1.19455E-004	12	...........	-327.56
	1024	512.5	1.46825E+000	1.14372E+000	0.00000E+000	1.47035E+000	-1.19255E-004	12	...........	-327.56
	1032	516.5	1.47617E+000	1.17521E+000	0.00000E+000	1.47835E+000	-1.21388E-004	12	...........	-327.56
	1040	520.5	1.48418E+000	1.20281E+000	0.00000E+000	1.48635E+000	-1.23555E-004	12	...........	-327.56
	1048	524.5	1.49218E+000	1.23075E+000	0.00000E+000	1.49435E+000	-1.22288E-004	12	...........	-327.56
	1056	528.5	1.50009E+000	1.25887E+000	0.00000E+000	1.50235E+000	-1.17321E-004	12	...........	-327.56
	1064	532.5	1.50808E+000	1.28935E+000	0.00000E+000	1.51035E+000	-1.20655E-004	12	...........	-327.56
	1072	536.5	1.51612E+000	1.32015E+000	0.00000E+000	1.51835E+000	-1.20555E-004	12	...........	-327.56
	1080	540.5	1.52402E+000	1.34867E+000	0.00000E+000	1.52635E+000	-1.23188E-004	12	...........	-327.56
	1088	544.5	1.53202E+000	1.37631E+000	0.00000E+000	1.53435E+000	-1.18655E-004	12	...........	-327.56
	1096	548.5	1.54002E+000	1.40517E+000	0.00000E+000	1.54235E+000	-1.14855E-004	12	...........	-327.56
	1104	552.5	1.54801E+000	1.43203E+000	0.00000E+000	1.55035E+000	-1.21421E-004	12	...........	-327.56
	1112	556.5	1.55594E+000	1.46065E+000	0.00000E+000	1.55835E+000	-1.20021E-004	12	...........	-327.56
	1120	560.5	1.56397E+000	1.48455E+000	0.00000E+000	1.56635E+000	-1.15121E-004	12	...........	-327.56
	1128	564.5	1.57197E+000	1.52045E+000	0.00000E+000	1.57435E+000	-1.20555E-004	12	...........	-327.56
	1136	568.5	1.57990E+000	1.55069E+000	0.00000E+000	1.58235E+000	-1.18521E-004	12	...........	-327.56
	1144	572.5	1.58792E+000	1.57552E+000	0.00000E+000	1.59035E+000	-1.13155E-004	12	...........	-327.56
	1152	576.5	1.59593E+000	1.60373E+000	0.00000E+000	1.59835E+000	-1.17188E-004	12	...........	-327.56
	1160	580.5	1.60384E+000	1.62959E+000	0.00000E+000	1.60635E+000	-1.16921E-004	12	...........	-327.56
	1168	584.5	1.61185E+000	1.66310E+000	0.00000E+000	1.61435E+000	-1.18288E-004	12	...........	-327.56
	1176	588.5	1.61989E+000	1.70012E+000	0.00000E+000	1.62235E+000	-1.14555E-004	12	...........	-327.56
	1184	592.5	1.62782E+000	1.73036E+000	0.00000E+000	1.63035E+000	-1.20488E-004	12	...........	-327.56
	1192	596.5	1.63582E+000	1.76213E+000	0.00000E+000	1.63835E+000	-1.15655E-004	12	...........	-327.56
	1200	600.5	1.64382E+000	1.79043E+000	0.00000E+000	1.64635E+000	-1.16321E-004	12	...........	-327.56
	1208	604.5	1.65172E+000	1.81963E+000	0.00000E+000	1.65435E+000	-1.15521E-004	12	...........	-327.56
	1216	608.5	1.65975E+000	1.84484E+000	0.00000E+000	1.66235E+000	-1.16488E-004	12	...........	-327.56
	1224	612.5	1.66779E+000	1.87942E+000	0.00000E+000	1.67035E+000	-1.14188E-004	12	...........	-327.56
	1232	616.5	1.67580E+000	1.90659E+000	0.00000E+000	1.67835E+000	-1.19088E-004	12	...........	-327.56
	1240	620.5	1.68372E+000	1.92852E+000	0.00000E+000	1.68635E+000	-1.20288E-004	12	...........	-327.56
	1248	624.5	1.69176E+000	1.95790E+000	0.00000E+000	1.69435E+000	-1.17088E-004	12	...........	-327.56
	1256	628.5	1.69578E+000	1.96841E+000	0.00000E+000	1.69835E+000	-1.15355E-004	12	...........	-327.56
	1264	632.5	1.68774E+000	1.95881E+000	0.00000E+000	1.69035E+000	-1.17988E-004	12	...........	-327.56
	1272	636.5	1.67975E+000	1.89340E+000	0.00000E+000	1.68235E+000	-1.20955E-004	12	...........	-327.56
	1280	640.5	1.67181E+000	1.89240E+000	0.00000E+000	1.67435E+000	-1.17155E-004	12	...........	-327.56
	1288	644.5	1.66377E+000	1.87311E+000	0.00000E+000	1.66635E+000	-1.17255E-004	12	...........	-327.56
	1296	648.5	1.65579E+000	1.85388E+000	0.00000E+000	1.65835E+000	-1.21621E-004	12	...........	-327.56
	1304	652.5	1.64784E+000	1.83515E+000	0.00000E+000	1.65035E+000	-1.16888E-004	12	...........	-327.56
	1312	656.5	1.63985E+000	1.82068E+000	0.00000E+000	1.64235E+000	-1.19988E-004	12	...........	-327.56
	1320	660.5	1.63188E+000	1.80426E+000	0.00000E+000	1.63435E+000	-1.20188E-004	12	...........	-327.56
	1328	664.5	1.62388E+000	1.77952E+000	0.00000E+000	1.62635E+000	-1.19488E-004	12	...........	-327.56
	1336	668.5	1.61590E+000	1.75788E+000	0.00000E+000	1.61835E+000	-1.20088E-004	12	...........	-327.56
	1344	672.5	1.60789E+000	1.73211E+000	0.00000E+000	1.61035E+000	-1.19721E-004	12	...........	-327.56
	1352	676.5	1.59990E+000	1.71163E+000	0.00000E+000	1.60235E+000	-1.17488E-004	12	...........	-327.56
	1360	680.5	1.59193E+000	1.68922E+000	0.00000E+000	1.59435E+000	-1.19555E-004	12	...........	-327.56
	1368	684.5	1.58392E+000	1.66314E+000	0.00000E+000	1.58635E+000	-1.19288E-004	12	...........	-327.56
	1376	688.5	1.57592E+000	1.63906E+000	0.00000E+000	1.57835E+000	-1.21955E-004	12	...........	-327.56
	1384	692.5	1.56794E+000	1.61380E+000	0.00000E+000	1.57035E+000	-1.20121E-004	12	...........	-327.56
	1392	696.5	1.55994E+000	1.58758E+000	0.00000E+000	1.56235E+000	-1.20555E-004	12	...........	-327.56
	1400	700.5	1.55194E+000	1.56762E+000	0.00000E+000	1.55435E+000	-1.19288E-004	12	...........	-327.56
	1408	704.5	1.54397E+000	1.53999E+000	0.00000E+000	1.54635E+000	-1.17988E-004	12	...........	-327.56
	1416	708.5	1.53597E+000	1.51574E+000	0.00000E+000	1.53835E+000	-1.22288E-004	12	...........	-327.56
	1424	712.5	1.52797E+000	1.49757E+000	0.00000E+000	1.53035E+000	-1.18455E-004	12	...........	-327.56
	1432	716.5	1.52006E+000	1.47794E+000	0.00000E+000	1.52235E+000	-1.19121E-004	12	...........	-327.56
	1440	720.5	1.51204E+000	1.45454E+000	0.00000E+000	1.51435E+000	-1.24221E-004	12	...........	-327.56
	1448	724.5	1.50402E+000	1.42930E+000	0.00000E+000	1.50635E+000	-1.20921E-004	12	...........	-327.56
	1456	728.5	1.49610E+000	1.40377E+000	0.00000E+000	1.49835E+000	-1.23688E-004	12	...........	-327.56
	1464	732.5	1.48811E+000	1.37475E+000	0.00000E+000	1.49035E+000	-1.21388E-004	12	...........	-327.56
	1472	736.5	1.48009E+000	1.35033E+000	0.00000E+000	1.48235E+000	-1.20588E-004	12	...........	-327.56
	1480	740.5	1.47211E+000	1.32697E+000	0.00000E+000	1.47435E+000	-1.22188E-004	12	...........	-327.56
	1488	744.5	1.46417E+000	1.30026E+000	0.00000E+000	1.46635E+000	-1.20921E-004	12	...........	-327.56
	1496	748.5	1.45614E+000	1.27759E+000	0.00000E+000	1.45835E+000	-1.17721E-004	12	...........	-327.56
	1504	752.5	1.44810E+000	1.25698E+000	0.00000E+000	1.45035E+000	-1.23455E-004	12	...........	-327.56
	1512	756.5	1.44022E+000	1.23505E+000	0.00000E+000	1.44235E+000	-1.18388E-004	12	...........	-327.56
	1520	760.5	1.43221E+000	1.21030E+000	0.00000E+000	1.43435E+000	-1.19121E-004	12	...........	-327.56
	1528	764.5	1.42419E+000	1.18962E+000	0.00000E+000	1.42635E+000	-1.20088E-004	12	...........	-327.56
	1536	768.5	1.41629E+000	1.17051E+000	0.00000E+000	1.41835E+000	-1.21055E-004	12	...........	-327.56
	1544	772.5	1.40825E+000	1.14739E+000	0.00000E+000	1.41035E+000	-1.20988E-004	12	...........	-327.56
	1552	776.5	1.40025E+000	1.12219E+000	0.00000E+000	1.40235E+000	-1.22621E-004	12	...........	-327.56
	1560	780.5	1.39233E+000	1.09460E+000	0.00000E+000	1.39435E+000	-1.18921E-004	12	...........	-327.56
	1568	784.5	1.38432E+000	1.07406E+000	0.00000E+000	1.38635E+000	-1.22155E-004	12	...........	-327.56
	1576	788.5	1.37629E+000	1.05032E+000	0.00000E+000	1.37835E+000	-1.17721E-004	12	...........	-327.56
	1584	792.5	1.36840E+000	1.02498E+000	0.00000E+000	1.37035E+000	-1.21188E-004	12	...........	-327.56
	1592	796.5	1.36041E+000	9.84639E-001	0.00000E+000	1.36235E+000	-1.19221E-004	12	...........	-327.56
	1600	800.5	1.35237E+000	9.65355E-001	0.00000E+000	1.35435E+000	-1.19255E-004	12	...........	-327.56
	1608	804.5	1.34435E+000	9.45553E-001	0.00000E+000	1.34635E+000	-1.22221E-004	12	...........	-327.56
	1616	808.5	1.33645E+000	9.23366E-001	0.00000E+000	1.33835E+000	-1.19388E-004	12	...........	-327.56
	1624	812.5	1.32849E+000	9.01375E-001	0.00000E+000	1.33035E+000	-1.20221E-004	12	...........	-327.56
	1632	816.5	1.32044E+000	8.79228E-001	0.00000E+000	1.32235E+000	-1.20055E-004	12	...........	-327.56
	1640	820.5	1.31256E+000	8.55852E-001	0.00000E+000	1.31435E+000	-1.16355E-004	12	...........	-327.56
	1648	824.5	1.30453E+000	8.33182E-001	0.00000E+000	1.30635E+000	-1.18121E-004	12	...........	-327.56
	1656	828.5	1.29653E+000	8.10674E-001	0.00000E+000	1.29835E+000	-1.19155E-004	12	...........	-327.56
	1664	832.5	1.28863E+000	7.86196E-001	0.00000E+000	1.29035E+000	-1.16055E-004	12	...........	-327.56
	1672	836.5	1.28061E+000	7.57958E-001	0.00000E+000	1.28235E+000	-1.13388E-004	12	...........	-327.56
	1680	840.5	1.27261E+000	7.32766E-001	0.00000E+000	1.27435E+000	-1.15755E-004	12	...........	-327.56
	1688	844.5	1.26469E+000	7.06866E-001	0.00000E+000	1.26635E+000	-1.15788E-004	12	...........	-327.56
	1696	848.5	1.25670E+000	6.81646E-001	0.00000E+000	1.25835E+000	-1.17755E-004	12	...........	-327.56
	1704	852.5	1.24866E+000	6.57565E-001	0.00000E+000	1.25035E+000	-1.13821E-004	12	...........	-327.56
	1712	856.5	1.24073E+000	6.32306E-001	0.00000E+000	1.24235E+000	-1.15955E-004	12	...........	-327.56
	1720	860.5	1.23276E+000	6.07133E-001	0.00000E+000	1.23435E+000	-1.14888E-004	12	...........	-327.56
	1728	864.5	1.22473E+000	5.84058E-001	0.00000E+000	1.22635E+000	-1.19555E-004	12	...........	-327.56
	1736	868.5	1.21670E+000	5.59737E-001	0.00000E+000	1.21835E+000	-1.17255E-004	12	...........	-327.56
	1744	872.5	1.20882E+000	5.39398E-001	0.00000E+000	1.21035E+000	-1.18588E-004	12	...........	-327.56
	1752	876.5	1.20078E+000	5.16616E-001	0.00000E+000	1.20235E+000	-1.16021E-004	12	...........	-327.56
	1760	880.5	1.19277E+000	4.92547E-001	0.00000E+000	1.19435E+000	-1.20088E-004	12	...........	-327.56
	1768	884.5	1.18487E+000	4.65893E-001	0.00000E+000	1.18635E+000	-1.20755E-004	12	...........	-327.56
	1776	888.5	1.17686E+000	4.43181E-001	0.00000E+000	1.17835E+000	-1.17421E-004	12	...........	-327.56
	1784	892.5	1.16886E+000	4.18866E-001	0.00000E+000	1.17035E+000	-1.17455E-004	12	...........	-327.56
	1792	896.5	1.16095E+000	3.93960E-001	0.00000E+000	1.16235E+000	-1.21588E-004	12	...........	-327.56
	1800	900.5	1.15295E+000	3.69074E-001	0.00000E+000	1.15435E+000	-1.14455E-004	12	...........	-327.56
	1808	904.5	1.14494E+000	3.42077E-001	0.00000E+000	1.14635E+000	-1.19255E-004	12	...........	-327.56
	1816	908.5	1.13701E+000	3.20954E-001	0.00000E+000	1.13835E+000	-1.17521E-004	12	...........	-327.56
	1824	912.5	1.12903E+000	3.00689E-001	0.00000E+000	1.13035E+000	-1.19988E-004	12	...........	-327.56
	1832	916.5	1.12103E+000	2.80902E-001	0.00000E+000	1.12235E+000	-1.21588E-004	12	...........	-327.56
	1840	920.5	1.11308E+000	2.62696E-001	0.00000E+000	1.11435E+000	-1.17521E-004	12	...........	-327.56
	1848	924.5	1.10511E+000	2.44623E-001	0.00000E+000	1.10635E+000	-1.15521E-004	12	...........	-327.56
	1856	928.5	1.09683E+000	2.26562E-001	0.00000E+000	1.09835E+000	-1.13221E-004	11	...........	-327.56
	1864	932.5	1.08883E+000	2.05263E-001	0.00000E+000	1.09035E+000	-1.15221E-004	11	...........	-327.56
	1872	936.5	1.08097E+000	1.92332E-001	0.00000E+000	1.08235E+000	-1.15321E-004	11	...........	-327.56
	1880	940.5	1.07297E+000	1.77127E-001	0.00000E+000	1.07435E+000	-1.15355E-004	11	...........	-327.56
	1888	944.5	1.06494E+000	1.64549E-001	0.00000E+000	1.06635E+000	-1.15621E-004	11	...........	-327.56
	1896	948.5	1.05704E+000	1.50217E-001	0.00000E+000	1.05835E+000	-1.15388E-004	11	...........	-327.56
	1904	952.5	1.04902E+000	1.38011E-001	0.00000E+000	1.05035E+000	-1.13921E-004	11	...........	-327.56
	1912	956.5	1.04103E+000	1.25933E-001	0.00000E+000	1.04235E+000	-1.19621E-004	11	...........	-327.56
	1920	960.5	1.03311E+000	1.15195E-001	0.00000E+000	1.03435E+000	-1.14388E-004	11	...........	-327.56
	1928	964.5	1.02512E+000	1.05886E-001	0.00000E+000	1.02635E+000	-1.14955E-004	11	...........	-327.56
	1936	968.5	1.01711E+000	9.70604E-002	0.00000E+000	1.01835E+000	-1.13788E-004	11	...........	-327.56
	1944	972.5	1.00918E+000	8.94084E-002	0.00000E+000	1.01035E+000	-1.16188E-004	11	...........	-327.56
	1952	976.5	1.00119E+000	8.23527E-002	0.00000E+000	1.00235E+000	-1.17088E-004	11	...........	-327.56
	1960	980.5	9.93165E-001	7.64617E-002	0.00000E+000	9.94350E-001	-1.13088E-004	11	...........	-327.56
	1968	984.5	9.85219E-001	7.01962E-002	0.00000E+000	9.86350E-001	-1.14321E-004	11	...........	-327.56
	1976	988.5	9.77235E-001	6.60377E-002	0.00000E+000	9.78350E-001	-1.15121E-004	11	...........	-327.56
	1984	992.5	9.69204E-001	6.31857E-002	0.00000E+000	9.70350E-001	-1.14321E-004	11	...........	-327.56
	1992	996.5	9.61191E-001	6.10277E-002	0.00000E+000	9.62350E-001	-1.17388E-004	11	...........	-327.56
	2000	1000.5	9.53280E-001	5.83461E-002	0.00000E+000	9.54350E-001	-1.15655E-004	11	...........	-327.56
	2008	1004.5	9.45245E-001	5.62420E-002	0.00000E+000	9.46350E-001	-1.12088E-004	11	...........	-327.56
	2016	1008.5	9.37214E-001	5.43850E-002	0.00000E+000	9.38350E-001	-1.15788E-004	11	...........	-327.56
	2024	1012.5	9.29308E-001	5.30497E-002	0.00000E+000	9.30350E-001	-1.14721E-004	11	...........	-327.56
	2032	1016.5	9.21332E-001	5.14892E-002	0.00000E+000	9.22350E-001	-1.15688E-004	11	...........	-327.56
	2040	1020.5	9.13306E-001	5.06251E-002	0.00000E+000	9.14350E-001	-1.17155E-004	11	...........	-327.56
	2048	1024.5	9.05384E-001	5.02370E-002	0.00000E+000	9.06350E-001	-1.12421E-004	11	...........	-327.56
	2056	1028.5	8.97382E-001	4.96874E-002	0.00000E+000	8.98350E-001	-1.13921E-004	11	...........	-327.56
	2064	1032.5	8.89347E-001	4.91893E-002	0.00000E+000	8.90350E-001	-1.14588E-004	11	...........	-327.56
	2072	1036.5	8.81409E-001	4.86585E-002	0.00000E+000	8.82350E-001	-1.18388E-004	11	...........	-327.56
	2080	1040.5	8.73387E-001	4.80193E-002	0.00000E+000	8.74350E-001	-1.13421E-004	11	...........	-327.56
	2088	1044.5	8.65394E-001	4.85476E-002	0.00000E+000	8.66350E-001	-1.17421E-004	11	...........	-327.56
	2096	1048.5	8.57416E-001	4.78022E-002	0.00000E+000	8.58350E-001	-1.12188E-004	11	...........	-327.56
	2104	1052.5	8.49422E-001	4.80229E-002	0.00000E+000	8.50350E-001	-1.16821E-004	11	...........	-327.56
	2112	1056.5	8.41387E-001	4.79689E-002	0.00000E+000	8.42350E-001	-1.13655E-004	11	...........	-327.56
	2120	1060.5	8.33398E-001	4.78559E-002	0.00000E+000	8.34350E-001	-1.15288E-004	11	...........	-327.56
	2128	1064.5	8.25441E-001	4.77764E-002	0.00000E+000	8.26350E-001	-1.13188E-004	11	...........	-327.56
	2136	1068.5	8.17475E-001	4.77509E-002	0.00000E+000	8.18350E-001	-1.17588E-004	11	...........	-327.56
	2144	1072.5	8.09451E-001	4.76274E-002	0.00000E+000	8.10350E-001	-1.19421E-004	11	...........	-327.56
	2152	1076.5	8.01498E-001	4.73329E-002	0.00000E+000	8.02350E-001	-1.16421E-004	11	...........	-327.56
	2160	1080.5	7.93477E-001	4.70957E-002	0.00000E+000	7.94350E-001	-1.17355E-004	11	...........	-327.56
	2168	1084.5	7.85493E-001	4.66075E-002	0.00000E+000	7.86350E-001	-1.17221E-004	11	...........	-327.56
	2176	1088.5	7.77510E-001	4.63637E-002	0.00000E+000	7.78350E-001	-1.17788E-004	11	...........	-327.56
	2184	1092.5	7.69507E-001	4.59745E-002	0.00000E+000	7.70350E-001	-1.16021E-004	11	...........	-327.56
	2192	1096.5	7.61507E-001	4.60039E-002	0.00000E+000	7.62350E-001	-1.12688E-004	11	...........	-327.56
	2200	1100.5	7.53522E-001	4.55088E-002	0.00000E+000	7.54350E-001	-1.18288E-004	11	...........	-327.56
	2208	1104.5	7.45520E-001	4.50504E-002	0.00000E+000	7.46350E-001	-1.15721E-004	11	...........	-327.56
	2216	1108.5	7.37513E-001	4.52200E-002	0.00000E+000	7.38350E-001	-1.16055E-004	11	...........	-327.56
	2224	1112.5	7.29519E-001	4.45244E-002	0.00000E+000	7.30350E-001	-1.16688E-004	11	...........	-327.56
	2232	1116.5	7.21534E-001	4.41930E-002	0.00000E+000	7.22350E-001	-1.14988E-004	11	...........	-327.56
	2240	1120.5	7.13544E-001	4.35222E-002	0.00000E+000	7.14350E-001	-1.18455E-004	11	...........	-327.56
	2248	1124.5	7.05534E-001	4.32166E-002	0.00000E+000	7.06350E-001	-1.19055E-004	11	...........	-327.56
	2256	1128.5	6.97575E-001	4.23113E-002	0.00000E+000	6.98350E-001	-1.18255E-004	11	...........	-327.56
	2264	1132.5	6.89548E-001	4.14615E-002	0.00000E+000	6.90350E-001	-1.14421E-004	11	...........	-327.56
	2272	1136.5	6.81541E-001	4.06971E-002	0.00000E+000	6.82350E-001	-1.17088E-004	11	...........	-327.56
	2280	1140.5	6.73599E-001	3.92622E-002	0.00000E+000	6.74350E-001	-1.18821E-004	11	...........	-327.56
	2288	1144.5	6.65575E-001	3.81193E-002	0.00000E+000	6.66350E-001	-1.17655E-004	11	...........	-327.56
	2296	1148.5	6.57561E-001	3.73655E-002	0.00000E+000	6.58350E-001	-1.18121E-004	11	...........	-327.56
	2304	1152.5	6.49638E-001	3.67743E-002	0.00000E+000	6.50350E-001	-1.21488E-004	11	...........	-327.56
	2312	1156.5	6.41623E-001	3.57832E-002	0.00000E+000	6.42350E-001	-1.17155E-004	11	...........	-327.56
	2320	1160.5	6.33589E-001	3.46149E-002	0.00000E+000	6.34350E-001	-1.16555E-004	11	...........	-327.56
	2328	1164.5	6.25641E-001	3.38090E-002	0.00000E+000	6.26350E-001	-1.19188E-004	11	...........	-327.56
	2336	1168.5	6.17644E-001	3.28108E-002	0.00000E+000	6.18350E-001	-1.17421E-004	11	...........	-327.56
	2344	1172.5	6.09615E-001	3.14131E-002	0.00000E+000	6.10350E-001	-1.17355E-004	11	...........	-327.56
	2352	1176.5	6.01654E-001	2.98246E-002	0.00000E+000	6.02350E-001	-1.13255E-004	11	...........	-327.56
	2360	1180.5	5.93694E-001	2.89537E-002	0.00000E+000	5.94350E-001	-1.16588E-004	11	...........	-327.56
	2368	1184.5	5.85640E-001	2.79546E-002	0.00000E+000	5.86350E-001	-1.17655E-004	11	...........	-327.56
	2376	1188.5	5.77584E-001	2.57435E-002	0.00000E+000	5.78350E-001	-1.16555E-004	11	...........	-327.56
	2384	1192.5	5.69460E-001	2.40644E-002	0.00000E+000	5.70350E-001	-1.12555E-004	10	...........	-327.56
	2392	1196.5	5.61471E-001	2.31687E-002	0.00000E+000	5.62350E-001	-1.13588E-004	10	...........	-327.56
	2400	1200.5	5.53492E-001	2.14725E-002	0.00000E+000	5.54350E-001	-1.14321E-004	10	...........	-327.56
	2408	1204.5	5.45527E-001	1.95699E-002	0.00000E+000	5.46350E-001	-1.14821E-004	10	...........	-327.56
	2416	1208.5	5.37524E-001	1.80361E-002	0.00000E+000	5.38350E-001	-1.15888E-004	10	...........	-327.56
	2424	1212.5	5.29544E-001	1.53432E-002	0.00000E+000	5.30350E-001	-1.18955E-004	10	...........	-327.56
	2432	1216.5	5.21606E-001	1.40044E-002	0.00000E+000	5.22350E-001	-1.16155E-004	10	...........	-327.56
	2440	1220.5	5.13610E-001	1.17137E-002	0.00000E+000	5.14350E-001	-1.14255E-004	10	...........	-327.56
	2448	1224.5	5.05677E-001	8.71231E-003	0.00000E+000	5.06350E-001	-1.14588E-004	10	...........	-327.56
	2456	1228.5	4.97752E-001	7.84380E-003	0.00000E+000	4.98350E-001	-1.15388E-004	10	...........	-327.56
	2464	1232.5	4.89770E-001	5.62855E-003	0.00000E+000	4.90350E-001	-1.15721E-004	10	...........	-327.56
	2472	1236.5	4.81768E-001	3.50012E-003	0.00000E+000	4.82350E-001	-1.16021E-004	10	...........	-327.56
	2480	1240.5	4.73702E-001	1.00629E-003	0.00000E+000	4.74350E-001	-1.16521E-004	9	...........	-327.56
	2488	1244.5	4.66107E-001	-1.98642E-003	0.00000E+000	4.66350E-001	-1.09821E-004	9	...........	-327.56
	2496	1248.5	4.57876E-001	-3.67979E-003	0.00000E+000	4.58350E-001	-1.18155E-004	10	...........	-327.56
	2504	1252.5	4.49864E-001	-5.90618E-003	0.00000E+000	4.50350E-001	-1.17855E-004	10	...........	-327.56
	2512	1256.5	4.41991E-001	-8.57650E-003	0.00000E+000	4.42350E-001	-1.18021E-004	10	...........	-327.56
	2520	1260.5	4.33981E-001	-1.11045E-002	0.00000E+000	4.34350E-001	-1.16488E-004	10	...........	-327.56
	2528	1264.5	4.25978E-001	-1.36345E-002	0.00000E+000	4.26350E-001	-1.15255E-004	10	...........	-327.56
	2536	1268.5	4.18101E-001	-1.61344E-002	0.00000E+000	4.18350E-001	-1.16055E-004	10	...........	-327.56
	2544	1272.5	4.10094E-001	-1.85266E-002	0.00000E+000	4.10350E-001	-1.11688E-004	10	...........	-327.56
	2552	1276.5	4.02113E-001	-2.09783E-002	0.00000E+000	4.02350E-001	-1.11155E-004	10	...........	-327.56
	2560	1280.5	3.94222E-001	-2.42439E-002	0.00000E+000	3.94350E-001	-1.07321E-004	10	...........	-327.56
	2568	1284.5	3.86208E-001	-2.53545E-002	0.00000E+000	3.86350E-001	-1.07388E-004	10	...........	-327.56
	2576	1288.5	3.77893E-001	-2.73826E-002	0.00000E+000	3.78350E-001	-1.13488E-004	11	...........	-327.56
	2584	1292.5	3.69966E-001	-2.98230E-002	0.00000E+000	3.70350E-001	-1.13021E-004	11	...........	-327.56
	2592	1296.5	3.61952E-001	-3.23043E-002	0.00000E+000	3.62350E-001	-1.16521E-004	11	...........	-327.56
	2600	1300.5	3.53928E-001	-3.45093E-002	0.00000E+000	3.54350E-001	-1.18055E-004	11	...........	-327.56
	2608	1304.5	3.45887E-001	-3.66801E-002	0.00000E+000	3.46350E-001	-1.16755E-004	11	...........	-327.56
	2616	1308.5	3.38001E-001	-3.90322E-002	0.00000E+000	3.38350E-001	-1.15655E-004	11	...........	-327.56
	2624	1312.5	3.29962E-001	-4.17040E-002	0.00000E+000	3.30350E-001	-1.16488E-004	11	...........	-327.56
	2632	1316.5	3.21948E-001	-4.41978E-002	0.00000E+000	3.22350E-001	-1.16688E-004	11	...........	-327.56
	2640	1320.5	3.14029E-001	-4.66930E-002	0.00000E+000	3.14350E-001	-1.15888E-004	11	...........	-327.56
	2648	1324.5	3.06040E-001	-4.91163E-002	0.00000E+000	3.06350E-001	-1.14455E-004	11	...........	-327.56
	2656	1328.5	2.98011E-001	-5.13580E-002	0.00000E+000	2.98350E-001	-1.17988E-004	11	...........	-327.56
	2664	1332.5	2.90109E-001	-5.40593E-002	0.00000E+000	2.90350E-001	-1.15388E-004	11	...........	-327.56
	2672	1336.5	2.82066E-001	-5.66252E-002	0.00000E+000	2.82350E-001	-1.18688E-004	11	...........	-327.56
	2680	1340.5	2.74042E-001	-5.94192E-002	0.00000E+000	2.74350E-001	-1.17188E-004	11	...........	-327.56
	2688	1344.5	2.66133E-001	-6.22202E-002	0.00000E+000	2.66350E-001	-1.12555E-004	11	...........	-327.56
	2696	1348.5	2.58118E-001	-6.46957E-002	0.00000E+000	2.58350E-001	-1.18655E-004	11	...........	-327.56
	2704	1352.5	2.50092E-001	-6.78328E-002	0.00000E+000	2.50350E-001	-1.16021E-004	11	...........	-327.56
	2712	1356.5	2.42167E-001	-7.02762E-002	0.00000E+000	2.42350E-001	-1.15988E-004	11	...........	-327.56
	2720	1360.5	2.34159E-001	-7.20727E-002	0.00000E+000	2.34350E-001	-1.15255E-004	11	...........	-327.56
	2728	1364.5	2.26132E-001	-7.26806E-002	0.00000E+000	2.26350E-001	-1.16088E-004	11	...........	-327.56
	2736	1368.5	2.18065E-001	-7.40257E-002	0.00000E+000	2.18350E-001	-1.17655E-004	11	...........	-327.56
	2744	1372.5	2.10186E-001	-7.61636E-002	0.00000E+000	2.10350E-001	-1.13255E-004	11	...........	-327.56
	2752	1376.5	2.02173E-001	-7.66291E-002	0.00000E+000	2.02350E-001	-1.16588E-004	11	...........	-327.56
	2760	1380.5	1.94127E-001	-7.81244E-002	0.00000E+000	1.94350E-001	-1.15555E-004	11	...........	-327.56
	2768	1384.5	1.86234E-001	-7.97426E-002	0.00000E+000	1.86350E-001	-1.14088E-004	11	...........	-327.56
	2776	1388.5	1.78191E-001	-8.11828E-002	0.00000E+000	1.78350E-001	-1.15455E-004	11	...........	-327.56
	2784	1392.5	1.70159E-001	-8.31995E-002	0.00000E+000	1.70350E-001	-1.16421E-004	11	...........	-327.56
	2792	1396.5	1.62249E-001	-8.56610E-002	0.00000E+000	1.62350E-001	-1.16288E-004	11	...........	-327.56
	2800	1400.5	1.54218E-001	-8.78546E-002	0.00000E+000	1.54350E-001	-1.13588E-004	11	...........	-327.56
	2808	1404.5	1.46212E-001	-9.05561E-002	0.00000E+000	1.46350E-001	-1.17055E-004	11	...........	-327.56
	2816	1408.5	1.38283E-001	-9.30154E-002	0.00000E+000	1.38350E-001	-1.17388E-004	11	...........	-327.56
	2824	1412.5	1.30270E-001	-9.53839E-002	0.00000E+000	1.30350E-001	-1.14688E-004	11	...........	-327.56
	2832	1416.5	1.22237E-001	-9.94677E-002	0.00000E+000	1.22350E-001	-1.14421E-004	11	...........	-327.56
	2840	1420.5	1.14306E-001	-1.01893E-001	0.00000E+000	1.14350E-001	-1.15421E-004	11	...........	-327.56
	2848	1424.5	1.06300E-001	-1.04133E-001	0.00000E+000	1.06350E-001	-1.11788E-004	11	...........	-327.56
	2856	1428.5	9.83226E-002	-1.06850E-001	0.00000E+000	9.83500E-002	-1.16121E-004	11	...........	-327.56
	2864	1432.5	9.02764E-002	-1.09622E-001	0.00000E+000	9.03500E-002	-1.17055E-004	11	...........	-327.56
	2872	1436.5	8.23881E-002	-1.11924E-001	0.00000E+000	8.23500E-002	-1.15855E-004	11	...........	-327.56
	2880	1440.5	7.43331E-002	-1.15670E-001	0.00000E+000	7.43500E-002	-1.12555E-004	11	...........	-327.56
	2888	1444.5	6.63132E-002	-1.18776E-001	0.00000E+000	6.63500E-002	-1.17688E-004	11	...........	-327.56
	2896	1448.5	5.84099E-002	-1.22732E-001	0.00000E+000	5.83500E-002	-1.14955E-004	11	...........	-327.56
	2904	1452.5	5.03827E-002	-1.25821E-001	0.00000E+000	5.03500E-002	-1.16055E-004	11	...........	-327.56
	2912	1456.5	4.23643E-002	-1.27212E-001	0.00000E+000	4.23500E-002	-1.16221E-004	11	...........	-327.56
	2920	1460.5	3.44402E-002	-1.28395E-001	0.00000E+000	3.43500E-002	-1.16021E-004	11	...........	-327.56
	2928	1464.5	2.64111E-002	-1.27852E-001	0.00000E+000	2.63500E-002	-1.16488E-004	11	...........	-327.56
	2936	1468.5	1.83788E-002	-1.26927E-001	0.00000E+000	1.83500E-002	-1.16621E-004	11	...........	-327.56
	2944	1472.5	1.04285E-002	-1.26213E-001	0.00000E+000	1.03500E-002	-1.14855E-004	11	...........	-327.56
[...]
	10873	5437	5.17618E-001	1.38644E+000	0.00000E+000	5.19000E-001	-1.15455E-004	12	...........	-327.56
	10879	5440	5.23628E-001	1.39950E+000	0.00000E+000	5.25000E-001	-1.18755E-004	12	...........	-327.56
	10885	5443	5.29549E-001	1.41343E+000	0.00000E+000	5.31000E-001	-1.18021E-004	12	...........	-327.56
	10891	5446	5.35545E-001	1.42753E+000	0.00000E+000	5.37000E-001	-1.18755E-004	12	...........	-327.56
	10897	5449	5.41575E-001	1.44110E+000	0.00000E+000	5.43000E-001	-1.18088E-004	12	...........	-327.56
	10903	5452	5.47582E-001	1.45416E+000	0.00000E+000	5.49000E-001	-1.19188E-004	12	...........	-327.56
	10909	5455	5.53534E-001	1.46685E+000	0.00000E+000	5.55000E-001	-1.19588E-004	12	...........	-327.56
	10915	5458	5.59496E-001	1.47839E+000	0.00000E+000	5.61000E-001	-1.20255E-004	12	...........	-327.56
	10921	5461	5.65528E-001	1.48797E+000	0.00000E+000	5.67000E-001	-1.19055E-004	12	...........	-327.56
	10927	5464	5.71543E-001	1.49623E+000	0.00000E+000	5.73000E-001	-1.15855E-004	12	...........	-327.56
	10933	5467	5.77522E-001	1.50338E+000	0.00000E+000	5.79000E-001	-1.21055E-004	12	...........	-327.56
	10939	5470	5.83468E-001	1.50776E+000	0.00000E+000	5.85000E-001	-1.23055E-004	12	...........	-327.56
	10945	5473	5.89498E-001	1.50918E+000	0.00000E+000	5.91000E-001	-1.12721E-004	12	...........	-327.56
	10951	5476	5.95519E-001	1.50846E+000	0.00000E+000	5.97000E-001	-1.18455E-004	12	...........	-327.56
	10957	5479	6.01522E-001	1.50577E+000	0.00000E+000	6.03000E-001	-1.18021E-004	12	...........	-327.56
	10963	5482	6.07462E-001	1.50115E+000	0.00000E+000	6.09000E-001	-1.17988E-004	12	...........	-327.56
	10969	5485	6.13474E-001	1.49703E+000	0.00000E+000	6.15000E-001	-1.14521E-004	12	...........	-327.56
	10975	5488	6.19490E-001	1.49315E+000	0.00000E+000	6.21000E-001	-1.16155E-004	12	...........	-327.56
	10981	5491	6.25503E-001	1.48746E+000	0.00000E+000	6.27000E-001	-1.18988E-004	12	...........	-327.56
	10987	5494	6.31433E-001	1.48166E+000	0.00000E+000	6.33000E-001	-1.16321E-004	12	...........	-327.56
	10993	5497	6.37443E-001	1.47226E+000	0.00000E+000	6.39000E-001	-1.20055E-004	12	...........	-327.56
	10999	5500	6.43486E-001	1.46058E+000	0.00000E+000	6.45000E-001	-1.15721E-004	12	...........	-327.56
	11005	5503	6.49510E-001	1.44896E+000	0.00000E+000	6.51000E-001	-1.19521E-004	12	...........	-327.56
	11011	5506	6.55411E-001	1.43818E+000	0.00000E+000	6.57000E-001	-1.23421E-004	12	...........	-327.56
	11017	5509	6.61435E-001	1.43112E+000	0.00000E+000	6.63000E-001	-1.16155E-004	12	...........	-327.56
	11023	5512	6.67474E-001	1.42671E+000	0.00000E+000	6.69000E-001	-1.21121E-004	12	...........	-327.56
	11029	5515	6.73503E-001	1.42387E+000	0.00000E+000	6.75000E-001	-1.19988E-004	12	...........	-327.56
	11035	5518	6.79393E-001	1.42290E+000	0.00000E+000	6.81000E-001	-1.22288E-004	12	...........	-327.56
	11041	5521	6.85416E-001	1.42256E+000	0.00000E+000	6.87000E-001	-1.22255E-004	12	...........	-327.56
	11047	5524	6.91451E-001	1.42315E+000	0.00000E+000	6.93000E-001	-1.19055E-004	12	...........	-327.56
	11053	5527	6.97503E-001	1.42404E+000	0.00000E+000	6.99000E-001	-1.18155E-004	12	...........	-327.56
	11059	5530	7.03449E-001	1.42656E+000	0.00000E+000	7.05000E-001	-1.18721E-004	12	...........	-327.56
	11065	5533	7.09405E-001	1.43111E+000	0.00000E+000	7.11000E-001	-1.18621E-004	12	...........	-327.56
	11071	5536	7.15430E-001	1.43337E+000	0.00000E+000	7.17000E-001	-1.15888E-004	12	...........	-327.56
	11077	5539	7.21428E-001	1.43752E+000	0.00000E+000	7.23000E-001	-1.17355E-004	12	...........	-327.56
	11083	5542	7.27402E-001	1.44278E+000	0.00000E+000	7.29000E-001	-1.18855E-004	12	...........	-327.56
	11089	5545	7.33335E-001	1.44938E+000	0.00000E+000	7.35000E-001	-1.17355E-004	12	...........	-327.56
	11095	5548	7.39361E-001	1.45691E+000	0.00000E+000	7.41000E-001	-1.18655E-004	12	...........	-327.56
	11101	5551	7.45401E-001	1.46389E+000	0.00000E+000	7.47000E-001	-1.17721E-004	12	...........	-327.56
	11107	5554	7.51394E-001	1.47250E+000	0.00000E+000	7.53000E-001	-1.21755E-004	12	...........	-327.56
	11113	5557	7.57292E-001	1.47935E+000	0.00000E+000	7.59000E-001	-1.19921E-004	12	...........	-327.56
	11119	5560	7.63341E-001	1.48754E+000	0.00000E+000	7.65000E-001	-1.20521E-004	12	...........	-327.56
	11125	5563	7.69350E-001	1.49627E+000	0.00000E+000	7.71000E-001	-1.17255E-004	12	...........	-327.56
	11131	5566	7.75345E-001	1.50597E+000	0.00000E+000	7.77000E-001	-1.22021E-004	12	...........	-327.56
	11137	5569	7.81240E-001	1.51478E+000	0.00000E+000	7.83000E-001	-1.17455E-004	12	...........	-327.56
	11143	5572	7.87273E-001	1.52512E+000	0.00000E+000	7.89000E-001	-1.21555E-004	12	...........	-327.56
	11149	5575	7.93276E-001	1.53454E+000	0.00000E+000	7.95000E-001	-1.17921E-004	12	...........	-327.56
	11155	5578	7.99338E-001	1.54517E+000	0.00000E+000	8.01000E-001	-1.21655E-004	12	...........	-327.56
	11161	5581	8.05322E-001	1.55385E+000	0.00000E+000	8.07000E-001	-1.19555E-004	12	...........	-327.56
	11167	5584	8.11230E-001	1.56533E+000	0.00000E+000	8.13000E-001	-1.23955E-004	12	...........	-327.56
	11173	5587	8.17269E-001	1.57587E+000	0.00000E+000	8.19000E-001	-1.17988E-004	12	...........	-327.56
	11179	5590	8.23249E-001	1.58516E+000	0.00000E+000	8.25000E-001	-1.19521E-004	12	...........	-327.56
	11185	5593	8.29257E-001	1.59624E+000	0.00000E+000	8.31000E-001	-1.19121E-004	12	...........	-327.56
	11191	5596	8.35182E-001	1.60537E+000	0.00000E+000	8.37000E-001	-1.20188E-004	12	...........	-327.56
	11197	5599	8.41174E-001	1.61305E+000	0.00000E+000	8.43000E-001	-1.18055E-004	12	...........	-327.56
	11203	5602	8.47220E-001	1.62171E+000	0.00000E+000	8.49000E-001	-1.19255E-004	12	...........	-327.56
	11209	5605	8.53234E-001	1.62713E+000	0.00000E+000	8.55000E-001	-1.19988E-004	12	...........	-327.56
	11215	5608	8.59148E-001	1.63208E+000	0.00000E+000	8.61000E-001	-1.20021E-004	12	...........	-327.56
	11221	5611	8.65162E-001	1.63485E+000	0.00000E+000	8.67000E-001	-1.18821E-004	12	...........	-327.56
	11227	5614	8.71171E-001	1.63569E+000	0.00000E+000	8.73000E-001	-1.11121E-004	12	...........	-327.56
	11233	5617	8.77205E-001	1.63704E+000	0.00000E+000	8.79000E-001	-1.18455E-004	12	...........	-327.56
	11239	5620	8.83191E-001	1.63712E+000	0.00000E+000	8.85000E-001	-1.20255E-004	12	...........	-327.56
	11245	5623	8.89141E-001	1.63799E+000	0.00000E+000	8.91000E-001	-1.17788E-004	12	...........	-327.56
	11251	5626	8.95153E-001	1.63782E+000	0.00000E+000	8.97000E-001	-1.18521E-004	12	...........	-327.56
	11257	5629	9.01194E-001	1.63474E+000	0.00000E+000	9.03000E-001	-1.16988E-004	12	...........	-327.56
	11263	5632	9.07186E-001	1.63446E+000	0.00000E+000	9.09000E-001	-1.18688E-004	12	...........	-327.56
	11269	5635	9.13115E-001	1.63489E+000	0.00000E+000	9.15000E-001	-1.17721E-004	12	...........	-327.56
	11275	5638	9.19134E-001	1.63427E+000	0.00000E+000	9.21000E-001	-1.14455E-004	12	...........	-327.56
	11281	5641	9.25129E-001	1.63455E+000	0.00000E+000	9.27000E-001	-1.18088E-004	12	...........	-327.56
	11287	5644	9.31134E-001	1.63400E+000	0.00000E+000	9.33000E-001	-1.20121E-004	12	...........	-327.56
	11293	5647	9.37046E-001	1.63321E+000	0.00000E+000	9.39000E-001	-1.19921E-004	12	...........	-327.56
	11299	5650	9.43065E-001	1.62949E+000	0.00000E+000	9.45000E-001	-1.14821E-004	12	...........	-327.56
	11305	5653	9.49108E-001	1.62506E+000	0.00000E+000	9.51000E-001	-1.16988E-004	12	...........	-327.56
	11311	5656	9.55135E-001	1.61942E+000	0.00000E+000	9.57000E-001	-1.19688E-004	12	...........	-327.56
	11317	5659	9.61031E-001	1.60959E+000	0.00000E+000	9.63000E-001	-1.20655E-004	12	...........	-327.56
	11323	5662	9.67066E-001	1.60019E+000	0.00000E+000	9.69000E-001	-1.14821E-004	12	...........	-327.56
	11329	5665	9.73084E-001	1.58996E+000	0.00000E+000	9.75000E-001	-1.14355E-004	12	...........	-327.56
	11335	5668	9.79127E-001	1.57551E+000	0.00000E+000	9.81000E-001	-1.17821E-004	12	...........	-327.56
	11341	5671	9.85093E-001	1.55929E+000	0.00000E+000	9.87000E-001	-1.17321E-004	12	...........	-327.56
	11347	5674	9.91054E-001	1.54172E+000	0.00000E+000	9.93000E-001	-1.18388E-004	12	...........	-327.56
	11353	5677	9.97088E-001	1.52256E+000	0.00000E+000	9.99000E-001	-1.15021E-004	12	...........	-327.56
	11359	5680	1.00314E+000	1.50256E+000	0.00000E+000	1.00500E+000	-1.18421E-004	12	...........	-327.56
	11365	5683	1.00913E+000	1.47924E+000	0.00000E+000	1.01100E+000	-1.16155E-004	12	...........	-327.56
	11371	5686	1.01508E+000	1.45380E+000	0.00000E+000	1.01700E+000	-1.16621E-004	12	...........	-327.56
	11377	5689	1.02111E+000	1.42479E+000	0.00000E+000	1.02300E+000	-1.14388E-004	12	...........	-327.56
	11383	5692	1.02714E+000	1.39276E+000	0.00000E+000	1.02900E+000	-1.18155E-004	12	...........	-327.56
	11389	5695	1.03315E+000	1.35561E+000	0.00000E+000	1.03500E+000	-1.15888E-004	12	...........	-327.56
	11395	5698	1.03907E+000	1.31462E+000	0.00000E+000	1.04100E+000	-1.18021E-004	12	...........	-327.56
	11401	5701	1.04513E+000	1.26722E+000	0.00000E+000	1.04700E+000	-1.17521E-004	12	...........	-327.56
	11407	5704	1.05118E+000	1.21496E+000	0.00000E+000	1.05300E+000	-1.17155E-004	12	...........	-327.56
	11413	5707	1.05723E+000	1.15473E+000	0.00000E+000	1.05900E+000	-1.16055E-004	12	...........	-327.56
	11419	5710	1.06315E+000	1.08648E+000	0.00000E+000	1.06500E+000	-1.19355E-004	12	...........	-327.56
	11425	5713	1.06925E+000	1.01145E+000	0.00000E+000	1.07100E+000	-1.16455E-004	12	...........	-327.56
	11431	5716	1.07532E+000	9.33500E-001	0.00000E+000	1.07700E+000	-1.20221E-004	12	...........	-327.56
	11437	5719	1.08137E+000	8.60535E-001	0.00000E+000	1.08300E+000	-1.17388E-004	12	...........	-327.56
	11443	5722	1.08740E+000	7.99680E-001	0.00000E+000	1.08900E+000	-1.19255E-004	12	...........	-327.56
	11449	5725	1.09338E+000	7.52645E-001	0.00000E+000	1.09500E+000	-1.18155E-004	12	...........	-327.56
	11455	5728	1.09943E+000	7.14139E-001	0.00000E+000	1.10100E+000	-1.18355E-004	12	...........	-327.56
	11461	5731	1.10550E+000	6.83794E-001	0.00000E+000	1.10700E+000	-1.15255E-004	12	...........	-327.56
	11467	5734	1.11148E+000	6.58027E-001	0.00000E+000	1.11300E+000	-1.20221E-004	12	...........	-327.56
	11473	5737	1.11745E+000	6.34742E-001	0.00000E+000	1.11900E+000	-1.18288E-004	12	...........	-327.56
	11479	5740	1.12348E+000	6.15477E-001	0.00000E+000	1.12500E+000	-1.16555E-004	12	...........	-327.56
	11485	5743	1.12949E+000	5.98693E-001	0.00000E+000	1.13100E+000	-1.11355E-004	12	...........	-327.56
	11491	5746	1.13547E+000	5.85920E-001	0.00000E+000	1.13700E+000	-1.17255E-004	12	...........	-327.56
	11497	5749	1.14141E+000	5.73123E-001	0.00000E+000	1.14300E+000	-1.10755E-004	12	...........	-327.56
	11503	5752	1.14745E+000	5.63181E-001	0.00000E+000	1.14900E+000	-1.18721E-004	12	...........	-327.56
	11509	5755	1.15351E+000	5.55751E-001	0.00000E+000	1.15500E+000	-1.17521E-004	12	...........	-327.56
	11515	5758	1.15949E+000	5.49103E-001	0.00000E+000	1.16100E+000	-1.17021E-004	12	...........	-327.56
	11521	5761	1.16541E+000	5.44680E-001	0.00000E+000	1.16700E+000	-1.17921E-004	12	...........	-327.56
	11527	5764	1.17143E+000	5.42232E-001	0.00000E+000	1.17300E+000	-1.18221E-004	12	...........	-327.56
	11533	5767	1.17749E+000	5.40528E-001	0.00000E+000	1.17900E+000	-1.15288E-004	12	...........	-327.56
	11539	5770	1.18347E+000	5.42768E-001	0.00000E+000	1.18500E+000	-1.14488E-004	12	...........	-327.56
	11545	5773	1.18948E+000	5.43155E-001	0.00000E+000	1.19100E+000	-1.13555E-004	12	...........	-327.56
	11551	5776	1.19540E+000	5.49486E-001	0.00000E+000	1.19700E+000	-1.13855E-004	12	...........	-327.56
	11557	5779	1.20145E+000	5.51764E-001	0.00000E+000	1.20300E+000	-1.16821E-004	12	...........	-327.56
	11563	5782	1.20744E+000	5.57376E-001	0.00000E+000	1.20900E+000	-1.16555E-004	12	...........	-327.56
	11569	5785	1.21346E+000	5.66666E-001	0.00000E+000	1.21500E+000	-1.12955E-004	12	...........	-327.56
	11575	5788	1.21936E+000	5.74288E-001	0.00000E+000	1.22100E+000	-1.17155E-004	12	...........	-327.56
	11581	5791	1.22542E+000	5.84866E-001	0.00000E+000	1.22700E+000	-1.17721E-004	12	...........	-327.56
	11587	5794	1.23141E+000	5.96144E-001	0.00000E+000	1.23300E+000	-1.16021E-004	12	...........	-327.56
	11593	5797	1.23741E+000	6.10382E-001	0.00000E+000	1.23900E+000	-1.11288E-004	12	...........	-327.56
	11599	5800	1.24332E+000	6.24795E-001	0.00000E+000	1.24500E+000	-1.14455E-004	12	...........	-327.56
	11605	5803	1.24935E+000	6.42702E-001	0.00000E+000	1.25100E+000	-1.15521E-004	12	...........	-327.56
	11611	5806	1.25534E+000	6.66969E-001	0.00000E+000	1.25700E+000	-1.16655E-004	12	...........	-327.56
	11617	5809	1.26137E+000	6.72309E-001	0.00000E+000	1.26300E+000	-1.11988E-004	12	...........	-327.56
	11623	5812	1.26729E+000	7.04222E-001	0.00000E+000	1.26900E+000	-1.16821E-004	12	...........	-327.56
	11629	5815	1.27325E+000	7.30708E-001	0.00000E+000	1.27500E+000	-1.15521E-004	12	...........	-327.56
	11635	5818	1.27926E+000	7.32035E-001	0.00000E+000	1.28100E+000	-1.13688E-004	12	...........	-327.56
	11641	5821	1.28528E+000	7.48066E-001	0.00000E+000	1.28700E+000	-1.12488E-004	12	...........	-327.56
	11647	5824	1.29126E+000	7.71548E-001	0.00000E+000	1.29300E+000	-1.17155E-004	12	...........	-327.56
	11653	5827	1.29717E+000	7.77449E-001	0.00000E+000	1.29900E+000	-1.13755E-004	12	...........	-327.56
	11659	5830	1.30316E+000	8.22781E-001	0.00000E+000	1.30500E+000	-1.14455E-004	12	...........	-327.56
	11665	5833	1.30923E+000	7.94502E-001	0.00000E+000	1.31100E+000	-1.13021E-004	12	...........	-327.56
	11671	5836	1.31521E+000	8.25786E-001	0.00000E+000	1.31700E+000	-1.16355E-004	12	...........	-327.56
	11677	5839	1.32115E+000	8.28419E-001	0.00000E+000	1.32300E+000	-1.16721E-004	12	...........	-327.56
	11683	5842	1.32713E+000	8.64740E-001	0.00000E+000	1.32900E+000	-1.11255E-004	12	...........	-327.56
	11689	5845	1.33311E+000	8.83081E-001	0.00000E+000	1.33500E+000	-1.15221E-004	12	...........	-327.56
	11695	5848	1.33913E+000	8.84822E-001	0.00000E+000	1.34100E+000	-1.17655E-004	12	...........	-327.56
	11701	5851	1.34501E+000	9.11862E-001	0.00000E+000	1.34700E+000	-1.18055E-004	12	...........	-327.56
	11707	5854	1.35102E+000	9.39434E-001	0.00000E+000	1.35300E+000	-1.18288E-004	12	...........	-327.56
	11713	5857	1.35704E+000	9.55601E-001	0.00000E+000	1.35900E+000	-1.15621E-004	12	...........	-327.56
	11719	5860	1.36309E+000	9.50607E-001	0.00000E+000	1.36500E+000	-1.14221E-004	12	...........	-327.56
	11725	5863	1.36900E+000	1.05129E+000	0.00000E+000	1.37100E+000	-1.19088E-004	12	...........	-327.56
	11731	5866	1.37495E+000	1.04081E+000	0.00000E+000	1.37700E+000	-1.16121E-004	12	...........	-327.56
	11737	5869	1.38096E+000	1.04225E+000	0.00000E+000	1.38300E+000	-1.15788E-004	12	...........	-327.56
	11743	5872	1.38701E+000	1.04355E+000	0.00000E+000	1.38900E+000	-1.17588E-004	12	...........	-327.56
	11749	5875	1.39299E+000	1.05415E+000	0.00000E+000	1.39500E+000	-1.18255E-004	12	...........	-327.56
	11755	5878	1.39892E+000	1.06244E+000	0.00000E+000	1.40100E+000	-1.15321E-004	12	...........	-327.56
	11761	5881	1.40490E+000	1.12528E+000	0.00000E+000	1.40700E+000	-1.16921E-004	12	...........	-327.56
	11767	5884	1.41091E+000	1.15699E+000	0.00000E+000	1.41300E+000	-1.16288E-004	12	...........	-327.56
	11773	5887	1.41687E+000	1.21750E+000	0.00000E+000	1.41900E+000	-1.15321E-004	12	...........	-327.56
	11779	5890	1.42281E+000	1.17689E+000	0.00000E+000	1.42500E+000	-1.14988E-004	12	...........	-327.56
	11785	5893	1.42885E+000	1.17601E+000	0.00000E+000	1.43100E+000	-1.17288E-004	12	...........	-327.56
	11791	5896	1.43480E+000	1.27813E+000	0.00000E+000	1.43700E+000	-1.17421E-004	12	...........	-327.56
	11797	5899	1.44083E+000	1.27202E+000	0.00000E+000	1.44300E+000	-1.12621E-004	12	...........	-327.56
	11803	5902	1.44671E+000	1.32407E+000	0.00000E+000	1.44900E+000	-1.14055E-004	12	...........	-327.56
	11809	5905	1.45276E+000	1.31560E+000	0.00000E+000	1.45500E+000	-1.16555E-004	12	...........	-327.56
	11815	5908	1.45876E+000	1.30956E+000	0.00000E+000	1.46100E+000	-1.13221E-004	12	...........	-327.56
	11821	5911	1.46482E+000	1.29783E+000	0.00000E+000	1.46700E+000	-1.16188E-004	12	...........	-327.56
	11827	5914	1.47079E+000	1.36128E+000	0.00000E+000	1.47300E+000	-1.14088E-004	12	...........	-327.56
	11833	5917	1.47674E+000	1.41226E+000	0.00000E+000	1.47900E+000	-1.15955E-004	12	...........	-327.56
	11839	5920	1.48270E+000	1.41259E+000	0.00000E+000	1.48500E+000	-1.16021E-004	12	...........	-327.56
	11845	5923	1.48874E+000	1.41625E+000	0.00000E+000	1.49100E+000	-1.14155E-004	12	...........	-327.56
	11851	5926	1.49472E+000	1.48355E+000	0.00000E+000	1.49700E+000	-1.10821E-004	12	...........	-327.56
	11857	5929	1.50071E+000	1.49205E+000	0.00000E+000	1.50300E+000	-1.16655E-004	12	...........	-327.56
	11863	5932	1.50664E+000	1.50482E+000	0.00000E+000	1.50900E+000	-1.13355E-004	12	...........	-327.56
	11869	5935	1.51268E+000	1.51169E+000	0.00000E+000	1.51500E+000	-1.12888E-004	12	...........	-327.56
	11875	5938	1.51868E+000	1.51670E+000	0.00000E+000	1.52100E+000	-1.14955E-004	12	...........	-327.56
	11881	5941	1.52459E+000	1.63242E+000	0.00000E+000	1.52700E+000	-1.18588E-004	12	...........	-327.56
	11887	5944	1.53059E+000	1.64535E+000	0.00000E+000	1.53300E+000	-1.15421E-004	12	...........	-327.56
	11893	5947	1.53656E+000	1.58633E+000	0.00000E+000	1.53900E+000	-1.13488E-004	12	...........	-327.56
	11899	5950	1.54260E+000	1.58911E+000	0.00000E+000	1.54500E+000	-1.10888E-004	12	...........	-327.56
	11905	5953	1.54859E+000	1.60114E+000	0.00000E+000	1.55100E+000	-1.12021E-004	12	...........	-327.56
	11911	5956	1.55452E+000	1.61526E+000	0.00000E+000	1.55700E+000	-1.13655E-004	12	...........	-327.56
	11917	5959	1.56054E+000	1.63691E+000	0.00000E+000	1.56300E+000	-1.13121E-004	12	...........	-327.56
	11923	5962	1.56656E+000	1.71419E+000	0.00000E+000	1.56900E+000	-1.17021E-004	12	...........	-327.56
	11929	5965	1.57255E+000	1.68608E+000	0.00000E+000	1.57500E+000	-1.14155E-004	12	...........	-327.56
	11935	5968	1.57848E+000	1.70515E+000	0.00000E+000	1.58100E+000	-1.14288E-004	12	...........	-327.56
	11941	5971	1.58449E+000	1.72914E+000	0.00000E+000	1.58700E+000	-1.12555E-004	12	...........	-327.56
	11947	5974	1.59051E+000	1.75669E+000	0.00000E+000	1.59300E+000	-1.13588E-004	12	...........	-327.56
	11953	5977	1.59650E+000	1.78868E+000	0.00000E+000	1.59900E+000	-1.11621E-004	12	...........	-327.56
	11959	5980	1.60241E+000	1.80530E+000	0.00000E+000	1.60500E+000	-1.16121E-004	12	...........	-327.56
	11965	5983	1.60844E+000	1.82936E+000	0.00000E+000	1.61100E+000	-1.11388E-004	12	...........	-327.56
	11971	5986	1.61446E+000	1.84886E+000	0.00000E+000	1.61700E+000	-1.14121E-004	12	...........	-327.56
	11977	5989	1.62047E+000	1.87619E+000	0.00000E+000	1.62300E+000	-1.13288E-004	12	...........	-327.56
	11983	5992	1.62637E+000	1.90728E+000	0.00000E+000	1.62900E+000	-1.16021E-004	12	...........	-327.56
	11989	5995	1.63239E+000	1.93592E+000	0.00000E+000	1.63500E+000	-1.12621E-004	12	...........	-327.56
	11995	5998	1.63838E+000	1.96253E+000	0.00000E+000	1.64100E+000	-1.13955E-004	12	...........	-327.56
	12001	6001	1.64442E+000	1.99221E+000	0.00000E+000	1.64700E+000	-1.13388E-004	12	...........	-327.56
	12007	6004	1.65042E+000	2.01746E+000	0.00000E+000	1.65300E+000	-1.13788E-004	12	...........	-327.56
	12013	6007	1.65636E+000	2.03366E+000	0.00000E+000	1.65900E+000	-1.11888E-004	12	...........	-327.56
	12019	6010	1.66237E+000	2.06085E+000	0.00000E+000	1.66500E+000	-1.13421E-004	12	...........	-327.56
	12025	6013	1.66840E+000	2.08398E+000	0.00000E+000	1.67100E+000	-1.10555E-004	12	...........	-327.56
	12031	6016	1.67441E+000	2.10136E+000	0.00000E+000	1.67700E+000	-1.15155E-004	12	...........	-327.56
	12037	6019	1.68033E+000	2.12427E+000	0.00000E+000	1.68300E+000	-1.11788E-004	12	...........	-327.56
	12043	6022	1.68635E+000	2.14580E+000	0.00000E+000	1.68900E+000	-1.12521E-004	12	...........	-327.56
	12049	6025	1.69236E+000	2.17310E+000	0.00000E+000	1.69500E+000	-1.08688E-004	12	...........	-327.56
	12054	6027.5	1.69739E+000	2.18811E+000	0.00000E+000	1.70000E+000	-1.13821E-004	12	...........	-327.56