File: testing/data/240902_19_MCL13_cspWE_CV2_750C_CO2.DTA
EXPLAIN
TAG	CV
TITLE	LABEL	Cyclic Voltammetry	Test Identifier
DATE	LABEL	9/3/2024	Date
TIME	LABEL	17:57:41	Time
NOTES	NOTES	5	Notes...
	cswWE - carbon steel wire
cspWE - carbon steel plate 2x2 tapered

Carbon steel plate counter electrode
Carbon steel wire reference electrode
PSTAT	PSTAT	REF3000-48128	Potentiostat
VINIT	POTEN	0.00000E+000	T	Initial E (V)
VLIMIT1	POTEN	1.70000E+000	F	Scan Limit 1 (V)
VLIMIT2	POTEN	-6.00000E-001	F	Scan Limit 2 (V)
VFINAL	POTEN	1.70000E+000	F	Final E (V)
SCANRATE	QUANT	2.00000E+000	Scan Rate (mV/s)
STEPSIZE	QUANT	1.00000E+000	Step Size (mV)
CYCLES	IQUANT	2	Cycles (#)
IMODE	SELECTOR	0	I/E Range Mode
IRANGE	QUANT	3.00000E-001	Max Current (mA)
AREA	QUANT	1.00000E+000	Sample Area (cm^2)
EQDELAY	QUANT	0.00000E+000	Equil. Time (s)
IRCOMP	SELECTOR	0	IRComp
PFCOR	QUANT	5.00000E+001	PF Corr. (ohm)
SAMPLINGMODE	SELECTOR	1	Sampling Mode
EOC	QUANT	-0.0297146	Open Circuit (V)
ELECTRODETYPE	SELECTOR	0	Electrode Type
STRIPPING	TOGGLE	F	Used for Stripping
SEQUENCER	TOGGLE	TRUE	Run as Sequence
PSTATMODEL	IQUANT	5	Pstat Model
PSTATSECTION	LABEL	REF3000-48128	Pstat Section
PSTATSERIALNO	LABEL	48128	Pstat Serial Number
CTRLMODE	IQUANT	1	Control Mode
ELECTROMETER	IQUANT	0	RE=0 or CS=1
IESTAB	IQUANT	2	I/E Stability
CASPEED	IQUANT	4	Control Amp Speed
CONVENTION	IQUANT	1	Current Convention
ICHRANGE	IQUANT	2	Ich Range
ICHRANGEMODE	TOGGLE	F	Ich Auto Range
ICHOFFSETENABLE	TOGGLE	F	Ich Offset Enable
ICHOFFSET	QUANT	0	Ich Offset (V)
ICHFILTER	IQUANT	3	Ich Filter
VCHRANGE	IQUANT	2	Vch Range
VCHRANGEMODE	TOGGLE	F	Vch Auto Range
VCHOFFSETENABLE	TOGGLE	F	Vch Offset Enable
VCHOFFSET	QUANT	0	Vch Offset (V)
VCHFILTER	IQUANT	3	Vch Filter
ACHRANGE	IQUANT	2	Ach Range
ACHOFFSETENABLE	TOGGLE	F	Ach Offset Enable
ACHOFFSET	QUANT	0	Ach Offset (V)
ACHFILTER	IQUANT	1	Ach Filter
IERANGELOWERLIMIT	IQUANT	2	I/E Range Lower Limit
IERANGEMODE	TOGGLE	T	I/E AutoRange
IERANGE	IQUANT	9	I/E Range
POSFEEDENABLE	TOGGLE	F	Positive Feedback IR Comp
POSFEEDRESISTANCE	QUANT	0	Positive Feedback Resistance (ohm)
ACHSELECT	IQUANT	4	Ach Select
SENSECABLEID	IQUANT	14	Sense Cable ID
PWRCABLEID	IQUANT	7	Power Cable ID
DCCALDATE	LABEL	8/16/2024	DC Calibration Date
ACCALDATE	LABEL	8/16/2024	AC Calibration Date
THERMOSELECT	IQUANT	1	Thermo Select
FRAMEWORKVERSION	LABEL	7.10.3	Framework Version
INSTRUMENTVERSION	LABEL	4.91	Instrument Version
COMMVERSION	LABEL	5.10	Communications Version
CPUPLDVERSION	LABEL	6.00	CPU PLD Version
CTRLPLDVERSION	LABEL	3.21	CTRL PLD Version
PSTATPLDVERSION	LABEL	0.00	PSTAT PLD Version
COMPLIANCEVOLTAGE	IQUANT	0	Compliance Voltage
CURVE1	TABLE
	Pt	T	Vf	Im	Vu	Sig	Ach	IERange	Over	Temp
	#	s	V vs. Ref.	A	V	V	V	#	bits	deg C
	0	0.5	-2.96498E-002	1.86713E-004	0.00000E+000	-2.97000E-002	-1.06055E-004	9	...........	-327.56
	9	5	-2.06646E-002	7.04176E-004	0.00000E+000	-2.07000E-002	-1.08288E-004	9	...........	-327.56
	18	9.5	-1.18424E-002	1.39763E-003	0.00000E+000	-1.17000E-002	-1.05021E-004	9	...........	-327.56
	27	14	-2.84578E-003	1.79526E-003	0.00000E+000	-2.69997E-003	-1.06221E-004	9	...........	-327.56
	36	18.5	5.90530E-003	2.14143E-003	0.00000E+000	6.30003E-003	-9.69214E-005	9	...........	-327.56
	45	23	1.48134E-002	2.25652E-003	0.00000E+000	1.53000E-002	-1.16755E-004	9	...........	-327.56
	54	27.5	2.41304E-002	2.68478E-003	0.00000E+000	2.43000E-002	-1.16755E-004	10	...........	-327.56
	63	32	3.31344E-002	3.10916E-003	0.00000E+000	3.33000E-002	-1.16988E-004	10	...........	-327.56
	72	36.5	4.20712E-002	3.41592E-003	0.00000E+000	4.23000E-002	-1.15055E-004	10	...........	-327.56
	81	41	5.11255E-002	3.75756E-003	0.00000E+000	5.13000E-002	-1.10388E-004	10	...........	-327.56
	90	45.5	6.01225E-002	4.15532E-003	0.00000E+000	6.03000E-002	-1.18555E-004	10	...........	-327.56
	99	50	6.90539E-002	4.54921E-003	0.00000E+000	6.93000E-002	-1.14621E-004	10	...........	-327.56
	108	54.5	7.80651E-002	5.05353E-003	0.00000E+000	7.83000E-002	-1.16055E-004	10	...........	-327.56
	117	59	8.70925E-002	5.39527E-003	0.00000E+000	8.73000E-002	-1.13055E-004	10	...........	-327.56
	126	63.5	9.60131E-002	6.15943E-003	0.00000E+000	9.63000E-002	-1.11721E-004	10	...........	-327.56
	135	68	1.05010E-001	6.73309E-003	0.00000E+000	1.05300E-001	-1.13721E-004	10	...........	-327.56
	144	72.5	1.14025E-001	7.20658E-003	0.00000E+000	1.14300E-001	-1.15121E-004	10	...........	-327.56
	153	77	1.22953E-001	7.98037E-003	0.00000E+000	1.23300E-001	-1.10921E-004	10	...........	-327.56
	162	81.5	1.31969E-001	8.91615E-003	0.00000E+000	1.32300E-001	-1.11221E-004	10	...........	-327.56
	171	86	1.40918E-001	9.74571E-003	0.00000E+000	1.41300E-001	-1.15121E-004	10	...........	-327.56
	180	90.5	1.49881E-001	1.06022E-002	0.00000E+000	1.50300E-001	-1.11421E-004	10	...........	-327.56
	189	95	1.58916E-001	1.20322E-002	0.00000E+000	1.59300E-001	-1.13621E-004	10	...........	-327.56
	198	99.5	1.67884E-001	1.32270E-002	0.00000E+000	1.68300E-001	-1.16021E-004	10	...........	-327.56
	207	104	1.76816E-001	1.45875E-002	0.00000E+000	1.77300E-001	-1.08488E-004	10	...........	-327.56
	216	108.5	1.85854E-001	1.57709E-002	0.00000E+000	1.86300E-001	-1.10288E-004	10	...........	-327.56
	225	113	1.94755E-001	1.71093E-002	0.00000E+000	1.95300E-001	-1.11221E-004	10	...........	-327.56
	234	117.5	2.03770E-001	1.83865E-002	0.00000E+000	2.04300E-001	-1.12588E-004	10	...........	-327.56
	243	122	2.12749E-001	2.02064E-002	0.00000E+000	2.13300E-001	-1.12321E-004	10	...........	-327.56
	252	126.5	2.21693E-001	2.17199E-002	0.00000E+000	2.22300E-001	-1.13088E-004	10	...........	-327.56
	261	131	2.30673E-001	2.35309E-002	0.00000E+000	2.31300E-001	-1.09155E-004	10	...........	-327.56
	270	135.5	2.39668E-001	2.54380E-002	0.00000E+000	2.40300E-001	-1.09755E-004	10	...........	-327.56
	279	140	2.48890E-001	2.73790E-002	0.00000E+000	2.49300E-001	-1.17755E-004	11	...........	-327.56
	288	144.5	2.57921E-001	2.97642E-002	0.00000E+000	2.58300E-001	-1.13388E-004	11	...........	-327.56
	297	149	2.66936E-001	3.23401E-002	0.00000E+000	2.67300E-001	-1.11155E-004	11	...........	-327.56
	306	153.5	2.75861E-001	3.52058E-002	0.00000E+000	2.76300E-001	-1.09955E-004	11	...........	-327.56
	315	158	2.84920E-001	3.81542E-002	0.00000E+000	2.85300E-001	-1.13721E-004	11	...........	-327.56
	324	162.5	2.93869E-001	4.14540E-002	0.00000E+000	2.94300E-001	-1.15821E-004	11	...........	-327.56
	333	167	3.02825E-001	4.46996E-002	0.00000E+000	3.03300E-001	-1.14221E-004	11	...........	-327.56
	342	171.5	3.11844E-001	4.72540E-002	0.00000E+000	3.12300E-001	-1.16855E-004	11	...........	-327.56
	351	176	3.20723E-001	5.07369E-002	0.00000E+000	3.21300E-001	-1.13721E-004	11	...........	-327.56
	360	180.5	3.29782E-001	5.48495E-002	0.00000E+000	3.30300E-001	-1.16321E-004	11	...........	-327.56
	369	185	3.38796E-001	5.93562E-002	0.00000E+000	3.39300E-001	-1.14955E-004	11	...........	-327.56
	378	189.5	3.47709E-001	6.42055E-002	0.00000E+000	3.48300E-001	-1.14121E-004	11	...........	-327.56
	387	194	3.56741E-001	6.92808E-002	0.00000E+000	3.57300E-001	-1.15755E-004	11	...........	-327.56
	396	198.5	3.65767E-001	7.38362E-002	0.00000E+000	3.66300E-001	-1.17955E-004	11	...........	-327.56
	405	203	3.74667E-001	7.96643E-002	0.00000E+000	3.75300E-001	-1.14188E-004	11	...........	-327.56
	414	207.5	3.83683E-001	8.52207E-002	0.00000E+000	3.84300E-001	-1.18455E-004	11	...........	-327.56
	423	212	3.92724E-001	9.12345E-002	0.00000E+000	3.93300E-001	-1.09521E-004	11	...........	-327.56
	432	216.5	4.01612E-001	9.77447E-002	0.00000E+000	4.02300E-001	-1.14755E-004	11	...........	-327.56
	441	221	4.10657E-001	1.04313E-001	0.00000E+000	4.11300E-001	-1.13555E-004	11	...........	-327.56
	450	225.5	4.19684E-001	1.11121E-001	0.00000E+000	4.20300E-001	-1.08321E-004	11	...........	-327.56
	459	230	4.28636E-001	1.16897E-001	0.00000E+000	4.29300E-001	-1.12888E-004	11	...........	-327.56
	468	234.5	4.37616E-001	1.24308E-001	0.00000E+000	4.38300E-001	-1.13288E-004	11	...........	-327.56
	477	239	4.46633E-001	1.32277E-001	0.00000E+000	4.47300E-001	-1.13588E-004	11	...........	-327.56
	486	243.5	4.55545E-001	1.42499E-001	0.00000E+000	4.56300E-001	-1.14721E-004	11	...........	-327.56
	495	248	4.64561E-001	1.54325E-001	0.00000E+000	4.65300E-001	-1.09055E-004	11	...........	-327.56
	504	252.5	4.73542E-001	1.63931E-001	0.00000E+000	4.74300E-001	-1.08655E-004	11	...........	-327.56
	513	257	4.82471E-001	1.73421E-001	0.00000E+000	4.83300E-001	-1.15888E-004	11	...........	-327.56
	522	261.5	4.91498E-001	1.86327E-001	0.00000E+000	4.92300E-001	-1.13688E-004	11	...........	-327.56
	531	266	5.00396E-001	1.96847E-001	0.00000E+000	5.01300E-001	-1.15288E-004	11	...........	-327.56
	540	270.5	5.09402E-001	2.12243E-001	0.00000E+000	5.10300E-001	-1.11055E-004	11	...........	-327.56
	549	275	5.18367E-001	2.26886E-001	0.00000E+000	5.19300E-001	-1.12255E-004	11	...........	-327.56
	558	279.5	5.27262E-001	2.40572E-001	0.00000E+000	5.28300E-001	-1.11321E-004	11	...........	-327.56
	567	284	5.36281E-001	2.51263E-001	0.00000E+000	5.37300E-001	-1.11955E-004	11	...........	-327.56
	576	288.5	5.45310E-001	2.59823E-001	0.00000E+000	5.46300E-001	-1.08821E-004	11	...........	-327.56
	585	293	5.54228E-001	2.56959E-001	0.00000E+000	5.55300E-001	-1.06721E-004	11	...........	-327.56
	594	297.5	5.63244E-001	2.56899E-001	0.00000E+000	5.64300E-001	-1.11721E-004	11	...........	-327.56
	603	302	5.72261E-001	2.54881E-001	0.00000E+000	5.73300E-001	-1.09521E-004	11	...........	-327.56
	612	306.5	5.81221E-001	2.50788E-001	0.00000E+000	5.82300E-001	-1.10188E-004	11	...........	-327.56
	621	311	5.90306E-001	2.40937E-001	0.00000E+000	5.91300E-001	-1.10321E-004	11	...........	-327.56
	630	315.5	5.99307E-001	2.30971E-001	0.00000E+000	6.00300E-001	-1.13388E-004	11	...........	-327.56
	639	320	6.08289E-001	2.19093E-001	0.00000E+000	6.09300E-001	-1.08721E-004	11	...........	-327.56
	648	324.5	6.17296E-001	2.20485E-001	0.00000E+000	6.18300E-001	-1.08021E-004	11	...........	-327.56
	657	329	6.26298E-001	2.15674E-001	0.00000E+000	6.27300E-001	-1.07355E-004	11	...........	-327.56
	666	333.5	6.35253E-001	2.11137E-001	0.00000E+000	6.36300E-001	-1.11621E-004	11	...........	-327.56
	675	338	6.44297E-001	2.05203E-001	0.00000E+000	6.45300E-001	-1.12988E-004	11	...........	-327.56
	684	342.5	6.53218E-001	1.99892E-001	0.00000E+000	6.54300E-001	-1.08855E-004	11	...........	-327.56
	693	347	6.62321E-001	1.89614E-001	0.00000E+000	6.63300E-001	-1.13255E-004	11	...........	-327.56
	702	351.5	6.71327E-001	1.85965E-001	0.00000E+000	6.72300E-001	-1.14055E-004	11	...........	-327.56
	711	356	6.80247E-001	1.80802E-001	0.00000E+000	6.81300E-001	-1.09955E-004	11	...........	-327.56
	720	360.5	6.89289E-001	1.78523E-001	0.00000E+000	6.90300E-001	-1.13521E-004	11	...........	-327.56
	729	365	6.98341E-001	1.70804E-001	0.00000E+000	6.99300E-001	-1.09288E-004	11	...........	-327.56
	738	369.5	7.07243E-001	1.63321E-001	0.00000E+000	7.08300E-001	-1.16655E-004	11	...........	-327.56
	747	374	7.16307E-001	1.54177E-001	0.00000E+000	7.17300E-001	-1.08821E-004	11	...........	-327.56
	756	378.5	7.25342E-001	1.44750E-001	0.00000E+000	7.26300E-001	-1.09421E-004	11	...........	-327.56
	765	383	7.34321E-001	1.36544E-001	0.00000E+000	7.35300E-001	-1.13921E-004	11	...........	-327.56
	774	387.5	7.43302E-001	1.30514E-001	0.00000E+000	7.44300E-001	-1.13855E-004	11	...........	-327.56
	783	392	7.52343E-001	1.22015E-001	0.00000E+000	7.53300E-001	-1.10721E-004	11	...........	-327.56
	792	396.5	7.61320E-001	1.15972E-001	0.00000E+000	7.62300E-001	-1.11421E-004	11	...........	-327.56
	801	401	7.70335E-001	1.10069E-001	0.00000E+000	7.71300E-001	-1.11955E-004	11	...........	-327.56
	810	405.5	7.79349E-001	1.04413E-001	0.00000E+000	7.80300E-001	-1.11255E-004	11	...........	-327.56
	819	410	7.88282E-001	9.92946E-002	0.00000E+000	7.89300E-001	-1.12588E-004	11	...........	-327.56
	828	414.5	7.97349E-001	9.44027E-002	0.00000E+000	7.98300E-001	-1.06421E-004	11	...........	-327.56
	837	419	8.06361E-001	8.97276E-002	0.00000E+000	8.07300E-001	-1.10055E-004	11	...........	-327.56
	846	423.5	8.15314E-001	8.67371E-002	0.00000E+000	8.16300E-001	-1.18555E-004	11	...........	-327.56
	855	428	8.24322E-001	8.32831E-002	0.00000E+000	8.25300E-001	-1.13621E-004	11	...........	-327.56
	864	432.5	8.33233E-001	8.01370E-002	0.00000E+000	8.34300E-001	-1.14955E-004	11	...........	-327.56
	873	437	8.42273E-001	7.71048E-002	0.00000E+000	8.43300E-001	-1.10321E-004	11	...........	-327.56
	882	441.5	8.51328E-001	7.42676E-002	0.00000E+000	8.52300E-001	-1.12755E-004	11	...........	-327.56
	891	446	8.60252E-001	7.17917E-002	0.00000E+000	8.61300E-001	-1.16721E-004	11	...........	-327.56
	900	450.5	8.69290E-001	6.99587E-002	0.00000E+000	8.70300E-001	-1.10555E-004	11	...........	-327.56
	909	455	8.78325E-001	6.88923E-002	0.00000E+000	8.79300E-001	-1.15455E-004	11	...........	-327.56
	918	459.5	8.87246E-001	6.80752E-002	0.00000E+000	8.88300E-001	-1.14255E-004	11	...........	-327.56
	927	464	8.96283E-001	6.67097E-002	0.00000E+000	8.97300E-001	-1.10855E-004	11	...........	-327.56
	936	468.5	9.05309E-001	6.57953E-002	0.00000E+000	9.06300E-001	-1.10121E-004	11	...........	-327.56
	945	473	9.14246E-001	6.46088E-002	0.00000E+000	9.15300E-001	-1.11688E-004	11	...........	-327.56
	954	477.5	9.23233E-001	6.39487E-002	0.00000E+000	9.24300E-001	-1.14355E-004	11	...........	-327.56
	963	482	9.32241E-001	6.35119E-002	0.00000E+000	9.33300E-001	-1.12421E-004	11	...........	-327.56
	972	486.5	9.41174E-001	6.26264E-002	0.00000E+000	9.42300E-001	-1.10288E-004	11	...........	-327.56
	981	491	9.50259E-001	6.26636E-002	0.00000E+000	9.51300E-001	-1.12255E-004	11	...........	-327.56
	990	495.5	9.59234E-001	6.22483E-002	0.00000E+000	9.60300E-001	-1.15421E-004	11	...........	-327.56
	999	500	9.68189E-001	6.18598E-002	0.00000E+000	9.69300E-001	-1.11921E-004	11	...........	-327.56
	1008	504.5	9.77213E-001	6.18160E-002	0.00000E+000	9.78300E-001	-1.12188E-004	11	...........	-327.56
	1017	509	9.86134E-001	6.15822E-002	0.00000E+000	9.87300E-001	-1.12221E-004	11	...........	-327.56
	1026	513.5	9.95165E-001	6.13500E-002	0.00000E+000	9.96300E-001	-1.13355E-004	11	...........	-327.56
	1035	518	1.00421E+000	6.17213E-002	0.00000E+000	1.00530E+000	-1.13855E-004	11	...........	-327.56
	1044	522.5	1.01313E+000	6.15273E-002	0.00000E+000	1.01430E+000	-1.15488E-004	11	...........	-327.56
	1053	527	1.02216E+000	6.22042E-002	0.00000E+000	1.02330E+000	-1.13721E-004	11	...........	-327.56
	1062	531.5	1.03117E+000	6.20975E-002	0.00000E+000	1.03230E+000	-1.11688E-004	11	...........	-327.56
	1071	536	1.04011E+000	6.27190E-002	0.00000E+000	1.04130E+000	-1.13155E-004	11	...........	-327.56
	1080	540.5	1.04912E+000	6.37019E-002	0.00000E+000	1.05030E+000	-1.14355E-004	11	...........	-327.56
	1089	545	1.05818E+000	6.39706E-002	0.00000E+000	1.05930E+000	-1.10755E-004	11	...........	-327.56
	1098	549.5	1.06713E+000	6.45640E-002	0.00000E+000	1.06830E+000	-1.12655E-004	11	...........	-327.56
	1107	554	1.07611E+000	6.53228E-002	0.00000E+000	1.07730E+000	-1.15255E-004	11	...........	-327.56
	1116	558.5	1.08513E+000	6.62521E-002	0.00000E+000	1.08630E+000	-1.14221E-004	11	...........	-327.56
	1125	563	1.09406E+000	6.74170E-002	0.00000E+000	1.09530E+000	-1.09988E-004	11	...........	-327.56
	1134	567.5	1.10311E+000	6.84992E-002	0.00000E+000	1.10430E+000	-1.13088E-004	11	...........	-327.56
	1143	572	1.11211E+000	7.00360E-002	0.00000E+000	1.11330E+000	-1.14088E-004	11	...........	-327.56
	1152	576.5	1.12105E+000	7.22408E-002	0.00000E+000	1.12230E+000	-1.12688E-004	11	...........	-327.56
	1161	581	1.13005E+000	7.47354E-002	0.00000E+000	1.13130E+000	-1.09388E-004	11	...........	-327.56
	1170	585.5	1.13903E+000	7.70485E-002	0.00000E+000	1.14030E+000	-1.06021E-004	11	...........	-327.56
	1179	590	1.14797E+000	7.97996E-002	0.00000E+000	1.14930E+000	-1.12155E-004	11	...........	-327.56
	1188	594.5	1.15703E+000	8.27696E-002	0.00000E+000	1.15830E+000	-1.09721E-004	11	...........	-327.56
	1197	599	1.16592E+000	8.68357E-002	0.00000E+000	1.16730E+000	-1.13755E-004	11	...........	-327.56
	1206	603.5	1.17496E+000	9.13916E-002	0.00000E+000	1.17630E+000	-1.08621E-004	11	...........	-327.56
	1215	608	1.18396E+000	9.66829E-002	0.00000E+000	1.18530E+000	-1.13355E-004	11	...........	-327.56
	1224	612.5	1.19289E+000	1.03527E-001	0.00000E+000	1.19430E+000	-1.12621E-004	11	...........	-327.56
	1233	617	1.20192E+000	1.10862E-001	0.00000E+000	1.20330E+000	-1.11988E-004	11	...........	-327.56
	1242	621.5	1.21093E+000	1.21157E-001	0.00000E+000	1.21230E+000	-1.12988E-004	11	...........	-327.56
	1251	626	1.21986E+000	1.29875E-001	0.00000E+000	1.22130E+000	-1.12621E-004	11	...........	-327.56
	1260	630.5	1.22884E+000	1.42511E-001	0.00000E+000	1.23030E+000	-1.12088E-004	11	...........	-327.56
	1269	635	1.23784E+000	1.55268E-001	0.00000E+000	1.23930E+000	-1.12021E-004	11	...........	-327.56
	1278	639.5	1.24676E+000	1.67443E-001	0.00000E+000	1.24830E+000	-1.15421E-004	11	...........	-327.56
	1287	644	1.25581E+000	1.82543E-001	0.00000E+000	1.25730E+000	-1.12588E-004	11	...........	-327.56
	1296	648.5	1.26477E+000	1.99464E-001	0.00000E+000	1.26630E+000	-1.10421E-004	11	...........	-327.56
	1305	653	1.27366E+000	2.19580E-001	0.00000E+000	1.27530E+000	-1.13288E-004	11	...........	-327.56
	1314	657.5	1.28267E+000	2.38880E-001	0.00000E+000	1.28430E+000	-1.09721E-004	11	...........	-327.56
	1323	662	1.29166E+000	2.58647E-001	0.00000E+000	1.29330E+000	-1.10855E-004	11	...........	-327.56
	1332	666.5	1.30085E+000	2.79550E-001	0.00000E+000	1.30230E+000	-1.17421E-004	12	...........	-327.56
	1341	671	1.30987E+000	2.99500E-001	0.00000E+000	1.31130E+000	-1.14221E-004	12	...........	-327.56
	1350	675.5	1.31878E+000	3.21462E-001	0.00000E+000	1.32030E+000	-1.09388E-004	12	...........	-327.56
	1359	680	1.32785E+000	3.49014E-001	0.00000E+000	1.32930E+000	-1.15955E-004	12	...........	-327.56
	1368	684.5	1.33678E+000	3.75650E-001	0.00000E+000	1.33830E+000	-1.08988E-004	12	...........	-327.56
	1377	689	1.34565E+000	4.04393E-001	0.00000E+000	1.34730E+000	-1.15188E-004	12	...........	-327.56
	1386	693.5	1.35467E+000	4.39085E-001	0.00000E+000	1.35630E+000	-1.12555E-004	12	...........	-327.56
	1395	698	1.36370E+000	4.71662E-001	0.00000E+000	1.36530E+000	-1.09421E-004	12	...........	-327.56
	1404	702.5	1.37268E+000	5.02199E-001	0.00000E+000	1.37430E+000	-1.18221E-004	12	...........	-327.56
	1413	707	1.38160E+000	5.36696E-001	0.00000E+000	1.38330E+000	-1.15821E-004	12	...........	-327.56
	1422	711.5	1.39062E+000	5.67754E-001	0.00000E+000	1.39230E+000	-1.14588E-004	12	...........	-327.56
	1431	716	1.39952E+000	5.95442E-001	0.00000E+000	1.40130E+000	-1.13655E-004	12	...........	-327.56
	1440	720.5	1.40854E+000	6.22027E-001	0.00000E+000	1.41030E+000	-1.12388E-004	12	...........	-327.56
	1449	725	1.41753E+000	6.50356E-001	0.00000E+000	1.41930E+000	-1.14021E-004	12	...........	-327.56
	1458	729.5	1.42644E+000	6.89990E-001	0.00000E+000	1.42830E+000	-1.14655E-004	12	...........	-327.56
	1467	734	1.43544E+000	7.22696E-001	0.00000E+000	1.43730E+000	-1.14255E-004	12	...........	-327.56
	1476	738.5	1.44444E+000	7.55915E-001	0.00000E+000	1.44630E+000	-1.15588E-004	12	...........	-327.56
	1485	743	1.45334E+000	7.86799E-001	0.00000E+000	1.45530E+000	-1.10955E-004	12	...........	-327.56
	1494	747.5	1.46238E+000	8.22155E-001	0.00000E+000	1.46430E+000	-1.14288E-004	12	...........	-327.56
	1503	752	1.47137E+000	8.56686E-001	0.00000E+000	1.47330E+000	-1.14021E-004	12	...........	-327.56
	1512	756.5	1.48029E+000	8.88732E-001	0.00000E+000	1.48230E+000	-1.14955E-004	12	...........	-327.56
	1521	761	1.48931E+000	9.18701E-001	0.00000E+000	1.49130E+000	-1.11055E-004	12	...........	-327.56
	1530	765.5	1.49819E+000	9.50708E-001	0.00000E+000	1.50030E+000	-1.10255E-004	12	...........	-327.56
	1539	770	1.50718E+000	9.87584E-001	0.00000E+000	1.50930E+000	-1.14621E-004	12	...........	-327.56
	1548	774.5	1.51622E+000	1.02730E+000	0.00000E+000	1.51830E+000	-1.10988E-004	12	...........	-327.56
	1557	779	1.52514E+000	1.05866E+000	0.00000E+000	1.52730E+000	-1.15488E-004	12	...........	-327.56
	1566	783.5	1.53416E+000	1.09764E+000	0.00000E+000	1.53630E+000	-1.14021E-004	12	...........	-327.56
	1575	788	1.54308E+000	1.13383E+000	0.00000E+000	1.54530E+000	-1.09488E-004	12	...........	-327.56
	1584	792.5	1.55198E+000	1.17433E+000	0.00000E+000	1.55430E+000	-1.13155E-004	12	...........	-327.56
	1593	797	1.56103E+000	1.20542E+000	0.00000E+000	1.56330E+000	-1.12955E-004	12	...........	-327.56
	1602	801.5	1.57004E+000	1.23799E+000	0.00000E+000	1.57230E+000	-1.14688E-004	12	...........	-327.56
	1611	806	1.57903E+000	1.27553E+000	0.00000E+000	1.58130E+000	-1.15488E-004	12	...........	-327.56
	1620	810.5	1.58796E+000	1.30516E+000	0.00000E+000	1.59030E+000	-1.06488E-004	12	...........	-327.56
	1629	815	1.59699E+000	1.32537E+000	0.00000E+000	1.59930E+000	-1.09821E-004	12	...........	-327.56
	1638	819.5	1.60590E+000	1.35541E+000	0.00000E+000	1.60830E+000	-1.13621E-004	12	...........	-327.56
	1647	824	1.61492E+000	1.39120E+000	0.00000E+000	1.61730E+000	-1.12355E-004	12	...........	-327.56
	1656	828.5	1.62394E+000	1.41995E+000	0.00000E+000	1.62630E+000	-1.10688E-004	12	...........	-327.56
	1665	833	1.63285E+000	1.44857E+000	0.00000E+000	1.63530E+000	-1.18888E-004	12	...........	-327.56
	1674	837.5	1.64185E+000	1.48868E+000	0.00000E+000	1.64430E+000	-1.14188E-004	12	...........	-327.56
	1683	842	1.65082E+000	1.51869E+000	0.00000E+000	1.65330E+000	-1.08521E-004	12	...........	-327.56
	1692	846.5	1.65979E+000	1.54629E+000	0.00000E+000	1.66230E+000	-1.13255E-004	12	...........	-327.56
	1701	851	1.66882E+000	1.57630E+000	0.00000E+000	1.67130E+000	-1.11655E-004	12	...........	-327.56
	1710	855.5	1.67772E+000	1.60158E+000	0.00000E+000	1.68030E+000	-1.20121E-004	12	...........	-327.56
	1719	860	1.68676E+000	1.64161E+000	0.00000E+000	1.68930E+000	-1.08155E-004	12	...........	-327.56
	1728	864.5	1.69579E+000	1.67130E+000	0.00000E+000	1.69830E+000	-1.08655E-004	12	...........	-327.56
	1737	869	1.69076E+000	1.65917E+000	0.00000E+000	1.69330E+000	-1.13821E-004	12	...........	-327.56
	1746	873.5	1.68177E+000	1.63070E+000	0.00000E+000	1.68430E+000	-1.16988E-004	12	...........	-327.56
	1755	878	1.67282E+000	1.60536E+000	0.00000E+000	1.67530E+000	-1.13255E-004	12	...........	-327.56
	1764	882.5	1.66381E+000	1.57820E+000	0.00000E+000	1.66630E+000	-1.11621E-004	12	...........	-327.56
	1773	887	1.65478E+000	1.55048E+000	0.00000E+000	1.65730E+000	-1.10455E-004	12	...........	-327.56
	1782	891.5	1.64585E+000	1.52723E+000	0.00000E+000	1.64830E+000	-1.13521E-004	12	...........	-327.56
	1791	896	1.63685E+000	1.49857E+000	0.00000E+000	1.63930E+000	-1.12821E-004	12	...........	-327.56
	1800	900.5	1.62783E+000	1.47005E+000	0.00000E+000	1.63030E+000	-1.12621E-004	12	...........	-327.56
	1809	905	1.61893E+000	1.44193E+000	0.00000E+000	1.62130E+000	-1.12188E-004	12	...........	-327.56
	1818	909.5	1.60989E+000	1.41587E+000	0.00000E+000	1.61230E+000	-1.12288E-004	12	...........	-327.56
	1827	914	1.60085E+000	1.38847E+000	0.00000E+000	1.60330E+000	-1.09655E-004	12	...........	-327.56
	1836	918.5	1.59196E+000	1.35890E+000	0.00000E+000	1.59430E+000	-1.14188E-004	12	...........	-327.56
	1845	923	1.58295E+000	1.32979E+000	0.00000E+000	1.58530E+000	-1.12288E-004	12	...........	-327.56
	1854	927.5	1.57400E+000	1.30283E+000	0.00000E+000	1.57630E+000	-1.11421E-004	12	...........	-327.56
	1863	932	1.56502E+000	1.27832E+000	0.00000E+000	1.56730E+000	-1.07621E-004	12	...........	-327.56
	1872	936.5	1.55600E+000	1.22143E+000	0.00000E+000	1.55830E+000	-1.10955E-004	12	...........	-327.56
	1881	941	1.54709E+000	1.19130E+000	0.00000E+000	1.54930E+000	-1.10321E-004	12	...........	-327.56
	1890	945.5	1.53808E+000	1.16349E+000	0.00000E+000	1.54030E+000	-1.15055E-004	12	...........	-327.56
	1899	950	1.52909E+000	1.13423E+000	0.00000E+000	1.53130E+000	-1.12021E-004	12	...........	-327.56
	1908	954.5	1.52019E+000	1.10586E+000	0.00000E+000	1.52230E+000	-1.08488E-004	12	...........	-327.56
	1917	959	1.51117E+000	1.07737E+000	0.00000E+000	1.51330E+000	-1.08021E-004	12	...........	-327.56
	1926	963.5	1.50219E+000	1.04897E+000	0.00000E+000	1.50430E+000	-1.14388E-004	12	...........	-327.56
	1935	968	1.49325E+000	1.02225E+000	0.00000E+000	1.49530E+000	-1.13288E-004	12	...........	-327.56
	1944	972.5	1.48421E+000	9.91119E-001	0.00000E+000	1.48630E+000	-1.14121E-004	12	...........	-327.56
	1953	977	1.47518E+000	9.60904E-001	0.00000E+000	1.47730E+000	-1.13755E-004	12	...........	-327.56
	1962	981.5	1.46631E+000	9.30980E-001	0.00000E+000	1.46830E+000	-1.06255E-004	12	...........	-327.56
	1971	986	1.45727E+000	9.02463E-001	0.00000E+000	1.45930E+000	-1.09288E-004	12	...........	-327.56
	1980	990.5	1.44828E+000	8.76986E-001	0.00000E+000	1.45030E+000	-1.09988E-004	12	...........	-327.56
	1989	995	1.43937E+000	8.51442E-001	0.00000E+000	1.44130E+000	-1.14921E-004	12	...........	-327.56
	1998	999.5	1.43037E+000	8.25251E-001	0.00000E+000	1.43230E+000	-1.16021E-004	12	...........	-327.56
	2007	1004	1.42136E+000	8.01280E-001	0.00000E+000	1.42330E+000	-1.08621E-004	12	...........	-327.56
	2016	1008.5	1.41244E+000	7.76857E-001	0.00000E+000	1.41430E+000	-1.10855E-004	12	...........	-327.56
	2025	1013	1.40344E+000	7.49803E-001	0.00000E+000	1.40530E+000	-1.10088E-004	12	...........	-327.56
	2034	1017.5	1.39451E+000	7.22886E-001	0.00000E+000	1.39630E+000	-1.19721E-004	12	...........	-327.56
	2043	1022	1.38553E+000	6.98035E-001	0.00000E+000	1.38730E+000	-1.12355E-004	12	...........	-327.56
	2052	1026.5	1.37649E+000	6.71901E-001	0.00000E+000	1.37830E+000	-1.11055E-004	12	...........	-327.56
	2061	1031	1.36755E+000	6.41935E-001	0.00000E+000	1.36930E+000	-1.12821E-004	12	...........	-327.56
	2070	1035.5	1.35860E+000	6.17611E-001	0.00000E+000	1.36030E+000	-1.09621E-004	12	...........	-327.56
	2079	1040	1.34956E+000	5.91805E-001	0.00000E+000	1.35130E+000	-1.11755E-004	12	...........	-327.56
	2088	1044.5	1.34066E+000	5.67716E-001	0.00000E+000	1.34230E+000	-1.10655E-004	12	...........	-327.56
	2097	1049	1.33163E+000	5.41941E-001	0.00000E+000	1.33330E+000	-1.10221E-004	12	...........	-327.56
	2106	1053.5	1.32266E+000	5.18624E-001	0.00000E+000	1.32430E+000	-1.11855E-004	12	...........	-327.56
	2115	1058	1.31375E+000	4.93526E-001	0.00000E+000	1.31530E+000	-1.12621E-004	12	...........	-327.56
	2124	1062.5	1.30474E+000	4.69979E-001	0.00000E+000	1.30630E+000	-1.09755E-004	12	...........	-327.56
	2133	1067	1.29574E+000	4.46984E-001	0.00000E+000	1.29730E+000	-1.10388E-004	12	...........	-327.56
	2142	1071.5	1.28682E+000	4.23817E-001	0.00000E+000	1.28830E+000	-1.05888E-004	12	...........	-327.56
	2151	1076	1.27779E+000	4.11367E-001	0.00000E+000	1.27930E+000	-1.10288E-004	12	...........	-327.56
	2160	1080.5	1.26876E+000	3.85119E-001	0.00000E+000	1.27030E+000	-1.13321E-004	12	...........	-327.56
	2169	1085	1.25988E+000	3.62403E-001	0.00000E+000	1.26130E+000	-1.10755E-004	12	...........	-327.56
	2178	1089.5	1.25083E+000	3.40223E-001	0.00000E+000	1.25230E+000	-1.13755E-004	12	...........	-327.56
	2187	1094	1.24182E+000	3.20147E-001	0.00000E+000	1.24330E+000	-1.11221E-004	12	...........	-327.56
	2196	1098.5	1.23293E+000	2.97333E-001	0.00000E+000	1.23430E+000	-1.12955E-004	12	...........	-327.56
	2205	1103	1.22394E+000	2.75483E-001	0.00000E+000	1.22530E+000	-1.12221E-004	12	...........	-327.56
	2214	1107.5	1.21498E+000	2.44249E-001	0.00000E+000	1.21630E+000	-1.10821E-004	12	...........	-327.56
	2223	1112	1.20576E+000	2.17938E-001	0.00000E+000	1.20730E+000	-1.07955E-004	11	...........	-327.56
	2232	1116.5	1.19674E+000	1.95713E-001	0.00000E+000	1.19830E+000	-1.06055E-004	11	...........	-327.56
	2241	1121	1.18786E+000	1.66951E-001	0.00000E+000	1.18930E+000	-1.06388E-004	11	...........	-327.56
	2250	1125.5	1.17887E+000	1.47437E-001	0.00000E+000	1.18030E+000	-1.08088E-004	11	...........	-327.56
	2259	1130	1.16987E+000	1.34076E-001	0.00000E+000	1.17130E+000	-1.09655E-004	11	...........	-327.56
	2268	1134.5	1.16097E+000	1.21401E-001	0.00000E+000	1.16230E+000	-1.09255E-004	11	...........	-327.56
	2277	1139	1.15195E+000	1.09855E-001	0.00000E+000	1.15330E+000	-1.11055E-004	11	...........	-327.56
	2286	1143.5	1.14293E+000	9.79236E-002	0.00000E+000	1.14430E+000	-1.08655E-004	11	...........	-327.56
	2295	1148	1.13404E+000	8.49807E-002	0.00000E+000	1.13530E+000	-1.09321E-004	11	...........	-327.56
	2304	1152.5	1.12506E+000	7.32267E-002	0.00000E+000	1.12630E+000	-1.08788E-004	11	...........	-327.56
	2313	1157	1.11603E+000	6.81475E-002	0.00000E+000	1.11730E+000	-1.11288E-004	11	...........	-327.56
	2322	1161.5	1.10712E+000	6.70161E-002	0.00000E+000	1.10830E+000	-1.10621E-004	11	...........	-327.56
	2331	1166	1.09807E+000	6.53710E-002	0.00000E+000	1.09930E+000	-1.08755E-004	11	...........	-327.56
	2340	1170.5	1.08903E+000	6.38403E-002	0.00000E+000	1.09030E+000	-1.11288E-004	11	...........	-327.56
	2349	1175	1.08013E+000	6.18392E-002	0.00000E+000	1.08130E+000	-1.09921E-004	11	...........	-327.56
	2358	1179.5	1.07110E+000	6.06253E-002	0.00000E+000	1.07230E+000	-1.10155E-004	11	...........	-327.56
	2367	1184	1.06216E+000	5.86912E-002	0.00000E+000	1.06330E+000	-1.08255E-004	11	...........	-327.56
	2376	1188.5	1.05316E+000	5.78872E-002	0.00000E+000	1.05430E+000	-1.08421E-004	11	...........	-327.56
	2385	1193	1.04412E+000	5.59203E-002	0.00000E+000	1.04530E+000	-1.14888E-004	11	...........	-327.56
	2394	1197.5	1.03517E+000	5.52305E-002	0.00000E+000	1.03630E+000	-1.11655E-004	11	...........	-327.56
	2403	1202	1.02618E+000	5.39665E-002	0.00000E+000	1.02730E+000	-1.11588E-004	11	...........	-327.56
	2412	1206.5	1.01715E+000	5.38361E-002	0.00000E+000	1.01830E+000	-1.06488E-004	11	...........	-327.56
	2421	1211	1.00823E+000	5.17754E-002	0.00000E+000	1.00930E+000	-1.09488E-004	11	...........	-327.56
	2430	1215.5	9.99188E-001	5.15446E-002	0.00000E+000	1.00030E+000	-1.05788E-004	11	...........	-327.56
	2439	1220	9.90208E-001	5.00578E-002	0.00000E+000	9.91300E-001	-1.11588E-004	11	...........	-327.56
	2448	1224.5	9.81249E-001	4.96165E-002	0.00000E+000	9.82300E-001	-1.11888E-004	11	...........	-327.56
	2457	1229	9.72208E-001	4.85696E-002	0.00000E+000	9.73300E-001	-1.10655E-004	11	...........	-327.56
	2466	1233.5	9.63165E-001	4.77309E-002	0.00000E+000	9.64300E-001	-1.11055E-004	11	...........	-327.56
	2475	1238	9.54260E-001	4.83730E-002	0.00000E+000	9.55300E-001	-1.09955E-004	11	...........	-327.56
	2484	1242.5	9.45200E-001	4.74111E-002	0.00000E+000	9.46300E-001	-1.08621E-004	11	...........	-327.56
	2493	1247	9.36192E-001	4.58642E-002	0.00000E+000	9.37300E-001	-1.11321E-004	11	...........	-327.56
	2502	1251.5	9.27272E-001	4.63509E-002	0.00000E+000	9.28300E-001	-1.15055E-004	11	...........	-327.56
	2511	1256	9.18316E-001	4.59908E-002	0.00000E+000	9.19300E-001	-1.11988E-004	11	...........	-327.56
	2520	1260.5	9.09245E-001	4.52975E-002	0.00000E+000	9.10300E-001	-1.11521E-004	11	...........	-327.56
	2529	1265	9.00330E-001	4.49263E-002	0.00000E+000	9.01300E-001	-1.11621E-004	11	...........	-327.56
	2538	1269.5	8.91306E-001	4.44376E-002	0.00000E+000	8.92300E-001	-1.12188E-004	11	...........	-327.56
	2547	1274	8.82351E-001	4.39252E-002	0.00000E+000	8.83300E-001	-1.10821E-004	11	...........	-327.56
	2556	1278.5	8.73347E-001	4.37409E-002	0.00000E+000	8.74300E-001	-1.09855E-004	11	...........	-327.56
	2565	1283	8.64299E-001	4.27522E-002	0.00000E+000	8.65300E-001	-1.09188E-004	11	...........	-327.56
	2574	1287.5	8.55385E-001	4.12614E-002	0.00000E+000	8.56300E-001	-1.12755E-004	11	...........	-327.56
	2583	1292	8.46372E-001	4.05608E-002	0.00000E+000	8.47300E-001	-1.11388E-004	11	...........	-327.56
	2592	1296.5	8.37317E-001	4.09312E-002	0.00000E+000	8.38300E-001	-1.12588E-004	11	...........	-327.56
	2601	1301	8.28382E-001	4.01500E-002	0.00000E+000	8.29300E-001	-1.08421E-004	11	...........	-327.56
	2610	1305.5	8.19359E-001	3.97682E-002	0.00000E+000	8.20300E-001	-1.08188E-004	11	...........	-327.56
	2619	1310	8.10381E-001	3.90344E-002	0.00000E+000	8.11300E-001	-1.08621E-004	11	...........	-327.56
	2628	1314.5	8.01470E-001	3.88592E-002	0.00000E+000	8.02300E-001	-1.10888E-004	11	...........	-327.56
	2637	1319	7.92412E-001	3.86038E-002	0.00000E+000	7.93300E-001	-1.12721E-004	11	...........	-327.56
	2646	1323.5	7.83363E-001	3.88526E-002	0.00000E+000	7.84300E-001	-1.13555E-004	11	...........	-327.56
	2655	1328	7.74448E-001	3.84394E-002	0.00000E+000	7.75300E-001	-1.09655E-004	11	...........	-327.56
	2664	1332.5	7.65424E-001	3.82668E-002	0.00000E+000	7.66300E-001	-1.06855E-004	11	...........	-327.56
	2673	1337	7.56380E-001	3.77326E-002	0.00000E+000	7.57300E-001	-1.13155E-004	11	...........	-327.56
	2682	1341.5	7.47490E-001	3.75155E-002	0.00000E+000	7.48300E-001	-1.05488E-004	11	...........	-327.56
	2691	1346	7.38426E-001	3.73360E-002	0.00000E+000	7.39300E-001	-1.10321E-004	11	...........	-327.56
	2700	1350.5	7.29496E-001	3.53694E-002	0.00000E+000	7.30300E-001	-1.08355E-004	11	...........	-327.56
	2709	1355	7.20502E-001	3.51057E-002	0.00000E+000	7.21300E-001	-1.06621E-004	11	...........	-327.56
	2718	1359.5	7.11494E-001	3.47013E-002	0.00000E+000	7.12300E-001	-1.10155E-004	11	...........	-327.56
	2727	1364	7.02574E-001	3.41364E-002	0.00000E+000	7.03300E-001	-1.11655E-004	11	...........	-327.56
	2736	1368.5	6.93557E-001	3.34737E-002	0.00000E+000	6.94300E-001	-1.11155E-004	11	...........	-327.56
	2745	1373	6.84522E-001	3.30289E-002	0.00000E+000	6.85300E-001	-1.11521E-004	11	...........	-327.56
	2754	1377.5	6.75581E-001	3.21831E-002	0.00000E+000	6.76300E-001	-1.07488E-004	11	...........	-327.56
	2763	1382	6.66563E-001	3.07507E-002	0.00000E+000	6.67300E-001	-1.13421E-004	11	...........	-327.56
	2772	1386.5	6.57546E-001	3.11243E-002	0.00000E+000	6.58300E-001	-1.14155E-004	11	...........	-327.56
	2781	1391	6.48605E-001	3.20941E-002	0.00000E+000	6.49300E-001	-1.12155E-004	11	...........	-327.56
	2790	1395.5	6.39565E-001	3.16428E-002	0.00000E+000	6.40300E-001	-1.11688E-004	11	...........	-327.56
	2799	1400	6.30552E-001	3.07016E-002	0.00000E+000	6.31300E-001	-1.12055E-004	11	...........	-327.56
	2808	1404.5	6.21600E-001	3.01415E-002	0.00000E+000	6.22300E-001	-1.11488E-004	11	...........	-327.56
	2817	1409	6.12635E-001	2.88847E-002	0.00000E+000	6.13300E-001	-1.07688E-004	11	...........	-327.56
	2826	1413.5	6.03585E-001	2.87515E-002	0.00000E+000	6.04300E-001	-1.12988E-004	11	...........	-327.56
	2835	1418	5.94653E-001	2.79576E-002	0.00000E+000	5.95300E-001	-1.11288E-004	11	...........	-327.56
	2844	1422.5	5.85604E-001	2.71013E-002	0.00000E+000	5.86300E-001	-1.13655E-004	11	...........	-327.56
	2853	1427	5.76584E-001	2.59562E-002	0.00000E+000	5.77300E-001	-1.10088E-004	11	...........	-327.56
	2862	1431.5	5.67662E-001	2.49754E-002	0.00000E+000	5.68300E-001	-1.10955E-004	11	...........	-327.56
	2871	1436	5.58366E-001	2.38644E-002	0.00000E+000	5.59300E-001	-1.10021E-004	10	...........	-327.56
	2880	1440.5	5.49448E-001	2.29407E-002	0.00000E+000	5.50300E-001	-1.04188E-004	10	...........	-327.56
	2889	1445	5.40441E-001	2.16532E-002	0.00000E+000	5.41300E-001	-1.04721E-004	10	...........	-327.56
	2898	1449.5	5.31432E-001	2.06912E-002	0.00000E+000	5.32300E-001	-1.08521E-004	10	...........	-327.56
	2907	1454	5.22511E-001	1.91610E-002	0.00000E+000	5.23300E-001	-1.07588E-004	10	...........	-327.56
	2916	1458.5	5.13530E-001	1.79939E-002	0.00000E+000	5.14300E-001	-1.09955E-004	10	...........	-327.56
	2925	1463	5.04550E-001	1.67740E-002	0.00000E+000	5.05300E-001	-1.08221E-004	10	...........	-327.56
	2934	1467.5	4.95604E-001	1.53760E-002	0.00000E+000	4.96300E-001	-1.07655E-004	10	...........	-327.56
	2943	1472	4.86615E-001	1.42478E-002	0.00000E+000	4.87300E-001	-1.09121E-004	10	...........	-327.56
	2952	1476.5	4.77598E-001	1.27731E-002	0.00000E+000	4.78300E-001	-1.05788E-004	10	...........	-327.56
	2961	1481	4.68698E-001	1.12796E-002	0.00000E+000	4.69300E-001	-1.09721E-004	10	...........	-327.56
	2970	1485.5	4.59676E-001	9.74653E-003	0.00000E+000	4.60300E-001	-1.09788E-004	10	...........	-327.56
	2979	1490	4.50676E-001	8.47015E-003	0.00000E+000	4.51300E-001	-1.09055E-004	10	...........	-327.56
	2988	1494.5	4.41777E-001	7.09256E-003	0.00000E+000	4.42300E-001	-1.08955E-004	10	...........	-327.56
	2997	1499	4.32741E-001	5.25973E-003	0.00000E+000	4.33300E-001	-1.09655E-004	10	...........	-327.56
	3006	1503.5	4.23781E-001	3.82428E-003	0.00000E+000	4.24300E-001	-1.11588E-004	10	...........	-327.56
	3015	1508	4.14845E-001	2.25223E-003	0.00000E+000	4.15300E-001	-1.07821E-004	10	...........	-327.56
	3024	1512.5	4.05733E-001	6.98089E-004	0.00000E+000	4.06300E-001	-1.11321E-004	9	...........	-327.56
	3033	1517	3.96929E-001	-8.60407E-004	0.00000E+000	3.97300E-001	-1.08655E-004	9	...........	-327.56
	3042	1521.5	3.88157E-001	-2.25151E-003	0.00000E+000	3.88300E-001	-1.05321E-004	9	...........	-327.56
	3051	1526	3.78891E-001	-3.94300E-003	0.00000E+000	3.79300E-001	-1.11755E-004	10	...........	-327.56
	3060	1530.5	3.69951E-001	-5.39798E-003	0.00000E+000	3.70300E-001	-1.08921E-004	10	...........	-327.56
	3069	1535	3.60971E-001	-7.04179E-003	0.00000E+000	3.61300E-001	-1.13755E-004	10	...........	-327.56
	3078	1539.5	3.51955E-001	-8.58799E-003	0.00000E+000	3.52300E-001	-1.11821E-004	10	...........	-327.56
	3087	1544	3.43039E-001	-9.75680E-003	0.00000E+000	3.43300E-001	-1.08688E-004	10	...........	-327.56
	3096	1548.5	3.34019E-001	-1.15772E-002	0.00000E+000	3.34300E-001	-1.08555E-004	10	...........	-327.56
	3105	1553	3.25011E-001	-1.29532E-002	0.00000E+000	3.25300E-001	-1.08088E-004	10	...........	-327.56
	3114	1557.5	3.16109E-001	-1.43145E-002	0.00000E+000	3.16300E-001	-1.10488E-004	10	...........	-327.56
	3123	1562	3.07139E-001	-1.59008E-002	0.00000E+000	3.07300E-001	-1.10555E-004	10	...........	-327.56
	3132	1566.5	2.98129E-001	-1.71905E-002	0.00000E+000	2.98300E-001	-1.05621E-004	10	...........	-327.56
	3141	1571	2.89203E-001	-1.90159E-002	0.00000E+000	2.89300E-001	-1.02888E-004	10	...........	-327.56
	3150	1575.5	2.80210E-001	-2.00896E-002	0.00000E+000	2.80300E-001	-1.10655E-004	10	...........	-327.56
	3159	1580	2.71190E-001	-2.16673E-002	0.00000E+000	2.71300E-001	-1.02588E-004	10	...........	-327.56
	3168	1584.5	2.62290E-001	-2.28119E-002	0.00000E+000	2.62300E-001	-9.89214E-005	10	...........	-327.56
	3177	1589	2.53263E-001	-2.39654E-002	0.00000E+000	2.53300E-001	-1.02855E-004	10	...........	-327.56
	3186	1593.5	2.44251E-001	-2.51723E-002	0.00000E+000	2.44300E-001	-1.00488E-004	10	...........	-327.56
	3195	1598	2.35371E-001	-2.66895E-002	0.00000E+000	2.35300E-001	-1.01855E-004	10	...........	-327.56
	3204	1602.5	2.26006E-001	-2.71655E-002	0.00000E+000	2.26300E-001	-1.10188E-004	11	...........	-327.56
	3213	1607	2.17056E-001	-3.56901E-002	0.00000E+000	2.17300E-001	-1.08388E-004	11	...........	-327.56
	3222	1611.5	2.08072E-001	-3.66747E-002	0.00000E+000	2.08300E-001	-1.10321E-004	11	...........	-327.56
	3231	1616	1.99061E-001	-3.70213E-002	0.00000E+000	1.99300E-001	-1.07021E-004	11	...........	-327.56
	3240	1620.5	1.90118E-001	-3.76932E-002	0.00000E+000	1.90300E-001	-1.13821E-004	11	...........	-327.56
	3249	1625	1.81108E-001	-3.78411E-002	0.00000E+000	1.81300E-001	-1.12355E-004	11	...........	-327.56
	3258	1629.5	1.72047E-001	-3.64984E-002	0.00000E+000	1.72300E-001	-1.09388E-004	11	...........	-327.56
	3267	1634	1.63125E-001	-3.58866E-002	0.00000E+000	1.63300E-001	-1.13088E-004	11	...........	-327.56
	3276	1638.5	1.54095E-001	-3.55597E-002	0.00000E+000	1.54300E-001	-1.06255E-004	11	...........	-327.56
	3285	1643	1.45068E-001	-3.57182E-002	0.00000E+000	1.45300E-001	-1.10055E-004	11	...........	-327.56
	3294	1647.5	1.36161E-001	-3.60948E-002	0.00000E+000	1.36300E-001	-1.12421E-004	11	...........	-327.56
	3303	1652	1.27103E-001	-3.64921E-002	0.00000E+000	1.27300E-001	-1.06521E-004	11	...........	-327.56
	3312	1656.5	1.18099E-001	-3.67388E-002	0.00000E+000	1.18300E-001	-1.13088E-004	11	...........	-327.56
	3321	1661	1.09160E-001	-3.70927E-002	0.00000E+000	1.09300E-001	-1.09388E-004	11	...........	-327.56
	3330	1665.5	1.00187E-001	-3.75011E-002	0.00000E+000	1.00300E-001	-1.10121E-004	11	...........	-327.56
	3339	1670	9.11455E-002	-3.79599E-002	0.00000E+000	9.13000E-002	-1.11055E-004	11	...........	-327.56
	3348	1674.5	8.22322E-002	-3.82211E-002	0.00000E+000	8.23000E-002	-1.07555E-004	11	...........	-327.56
[...]
	9956	4978.5	7.25107E-001	9.99741E-002	0.00000E+000	7.26000E-001	-1.14155E-004	11	...........	-327.56
	9961	4981	7.30006E-001	9.56957E-002	0.00000E+000	7.31000E-001	-1.12088E-004	11	...........	-327.56
	9966	4983.5	7.35049E-001	9.25624E-002	0.00000E+000	7.36000E-001	-1.12988E-004	11	...........	-327.56
	9971	4986	7.40064E-001	8.97556E-002	0.00000E+000	7.41000E-001	-1.11221E-004	11	...........	-327.56
	9976	4988.5	7.45089E-001	8.64674E-002	0.00000E+000	7.46000E-001	-1.10521E-004	11	...........	-327.56
	9981	4991	7.50129E-001	8.36700E-002	0.00000E+000	7.51000E-001	-1.10855E-004	11	...........	-327.56
	9986	4993.5	7.55105E-001	8.15280E-002	0.00000E+000	7.56000E-001	-1.09421E-004	11	...........	-327.56
	9991	4996	7.60027E-001	7.91247E-002	0.00000E+000	7.61000E-001	-1.11855E-004	11	...........	-327.56
	9996	4998.5	7.65075E-001	7.70177E-002	0.00000E+000	7.66000E-001	-1.11888E-004	11	...........	-327.56
	10001	5001	7.70109E-001	7.51431E-002	0.00000E+000	7.71000E-001	-1.12655E-004	11	...........	-327.56
	10006	5003.5	7.75121E-001	7.33322E-002	0.00000E+000	7.76000E-001	-1.09821E-004	11	...........	-327.56
	10011	5006	7.80120E-001	7.16490E-002	0.00000E+000	7.81000E-001	-1.13521E-004	11	...........	-327.56
	10016	5008.5	7.85042E-001	7.00234E-002	0.00000E+000	7.86000E-001	-1.15488E-004	11	...........	-327.56
	10021	5011	7.90059E-001	6.94662E-002	0.00000E+000	7.91000E-001	-1.15055E-004	11	...........	-327.56
	10026	5013.5	7.95111E-001	6.80593E-002	0.00000E+000	7.96000E-001	-1.11355E-004	11	...........	-327.56
	10031	5016	8.00126E-001	6.63797E-002	0.00000E+000	8.01000E-001	-1.15721E-004	11	...........	-327.56
	10036	5018.5	8.05121E-001	6.54300E-002	0.00000E+000	8.06000E-001	-1.13155E-004	11	...........	-327.56
	10041	5021	8.10045E-001	6.46476E-002	0.00000E+000	8.11000E-001	-1.11321E-004	11	...........	-327.56
	10046	5023.5	8.15065E-001	6.35068E-002	0.00000E+000	8.16000E-001	-1.11121E-004	11	...........	-327.56
	10051	5026	8.20029E-001	6.30145E-002	0.00000E+000	8.21000E-001	-1.11588E-004	11	...........	-327.56
	10056	5028.5	8.25057E-001	6.20040E-002	0.00000E+000	8.26000E-001	-1.15955E-004	11	...........	-327.56
	10061	5031	8.30063E-001	6.12949E-002	0.00000E+000	8.31000E-001	-1.13455E-004	11	...........	-327.56
	10066	5033.5	8.35059E-001	6.02629E-002	0.00000E+000	8.36000E-001	-1.13388E-004	11	...........	-327.56
	10071	5036	8.40037E-001	5.92494E-002	0.00000E+000	8.41000E-001	-1.12555E-004	11	...........	-327.56
	10076	5038.5	8.45023E-001	5.95434E-002	0.00000E+000	8.46000E-001	-1.13855E-004	11	...........	-327.56
	10081	5041	8.50062E-001	5.75900E-002	0.00000E+000	8.51000E-001	-1.12388E-004	11	...........	-327.56
	10086	5043.5	8.55068E-001	5.76970E-002	0.00000E+000	8.56000E-001	-1.12255E-004	11	...........	-327.56
	10091	5046	8.59971E-001	5.77487E-002	0.00000E+000	8.61000E-001	-1.11621E-004	11	...........	-327.56
	10096	5048.5	8.64993E-001	5.56637E-002	0.00000E+000	8.66000E-001	-1.18588E-004	11	...........	-327.56
	10101	5051	8.69999E-001	5.55819E-002	0.00000E+000	8.71000E-001	-1.13655E-004	11	...........	-327.56
	10106	5053.5	8.75047E-001	5.55112E-002	0.00000E+000	8.76000E-001	-1.16855E-004	11	...........	-327.56
	10111	5056	8.80043E-001	5.50453E-002	0.00000E+000	8.81000E-001	-1.12488E-004	11	...........	-327.56
	10116	5058.5	8.84954E-001	5.50146E-002	0.00000E+000	8.86000E-001	-1.18488E-004	11	...........	-327.56
	10121	5061	8.89967E-001	5.49674E-002	0.00000E+000	8.91000E-001	-1.10455E-004	11	...........	-327.56
	10126	5063.5	8.94992E-001	5.42604E-002	0.00000E+000	8.96000E-001	-1.12788E-004	11	...........	-327.56
	10131	5066	9.00018E-001	5.44761E-002	0.00000E+000	9.01000E-001	-1.12655E-004	11	...........	-327.56
	10136	5068.5	9.05028E-001	5.46281E-002	0.00000E+000	9.06000E-001	-1.13921E-004	11	...........	-327.56
	10141	5071	9.09940E-001	5.37217E-002	0.00000E+000	9.11000E-001	-1.14688E-004	11	...........	-327.56
	10146	5073.5	9.15020E-001	5.41517E-002	0.00000E+000	9.16000E-001	-1.13321E-004	11	...........	-327.56
	10151	5076	9.19975E-001	5.39643E-002	0.00000E+000	9.21000E-001	-1.16988E-004	11	...........	-327.56
	10156	5078.5	9.24963E-001	5.41271E-002	0.00000E+000	9.26000E-001	-1.12855E-004	11	...........	-327.56
	10161	5081	9.29983E-001	5.43376E-002	0.00000E+000	9.31000E-001	-1.15121E-004	11	...........	-327.56
	10166	5083.5	9.34853E-001	5.43010E-002	0.00000E+000	9.36000E-001	-1.13388E-004	11	...........	-327.56
	10171	5086	9.39907E-001	5.38855E-002	0.00000E+000	9.41000E-001	-1.10221E-004	11	...........	-327.56
	10176	5088.5	9.44920E-001	5.31261E-002	0.00000E+000	9.46000E-001	-1.14921E-004	11	...........	-327.56
	10181	5091	9.49937E-001	5.32466E-002	0.00000E+000	9.51000E-001	-1.09588E-004	11	...........	-327.56
	10186	5093.5	9.54982E-001	5.32619E-002	0.00000E+000	9.56000E-001	-1.11255E-004	11	...........	-327.56
	10191	5096	9.59954E-001	5.34220E-002	0.00000E+000	9.61000E-001	-1.12588E-004	11	...........	-327.56
	10196	5098.5	9.64890E-001	5.31838E-002	0.00000E+000	9.66000E-001	-1.12355E-004	11	...........	-327.56
	10201	5101	9.69900E-001	5.32249E-002	0.00000E+000	9.71000E-001	-1.13621E-004	11	...........	-327.56
	10206	5103.5	9.74931E-001	5.33458E-002	0.00000E+000	9.76000E-001	-1.13455E-004	11	...........	-327.56
	10211	5106	9.79933E-001	5.33858E-002	0.00000E+000	9.81000E-001	-1.11821E-004	11	...........	-327.56
	10216	5108.5	9.84940E-001	5.34594E-002	0.00000E+000	9.86000E-001	-1.14755E-004	11	...........	-327.56
	10221	5111	9.89867E-001	5.33179E-002	0.00000E+000	9.91000E-001	-1.12088E-004	11	...........	-327.56
	10226	5113.5	9.94879E-001	5.35006E-002	0.00000E+000	9.96000E-001	-1.12821E-004	11	...........	-327.56
	10231	5116	9.99935E-001	5.36755E-002	0.00000E+000	1.00100E+000	-1.16321E-004	11	...........	-327.56
	10236	5118.5	1.00493E+000	5.38037E-002	0.00000E+000	1.00600E+000	-1.12988E-004	11	...........	-327.56
	10241	5121	1.00994E+000	5.41061E-002	0.00000E+000	1.01100E+000	-1.15155E-004	11	...........	-327.56
	10246	5123.5	1.01483E+000	5.44318E-002	0.00000E+000	1.01600E+000	-1.09188E-004	11	...........	-327.56
	10251	5126	1.01988E+000	5.50631E-002	0.00000E+000	1.02100E+000	-1.10221E-004	11	...........	-327.56
	10256	5128.5	1.02487E+000	5.53475E-002	0.00000E+000	1.02600E+000	-1.12788E-004	11	...........	-327.56
	10261	5131	1.02989E+000	5.58803E-002	0.00000E+000	1.03100E+000	-1.14355E-004	11	...........	-327.56
	10266	5133.5	1.03489E+000	5.66533E-002	0.00000E+000	1.03600E+000	-1.10988E-004	11	...........	-327.56
	10271	5136	1.03989E+000	5.71052E-002	0.00000E+000	1.04100E+000	-1.12088E-004	11	...........	-327.56
	10276	5138.5	1.04484E+000	5.80236E-002	0.00000E+000	1.04600E+000	-1.10455E-004	11	...........	-327.56
	10281	5141	1.04983E+000	5.87598E-002	0.00000E+000	1.05100E+000	-1.13788E-004	11	...........	-327.56
	10286	5143.5	1.05488E+000	6.00026E-002	0.00000E+000	1.05600E+000	-1.12855E-004	11	...........	-327.56
	10291	5146	1.05987E+000	6.10517E-002	0.00000E+000	1.06100E+000	-1.06755E-004	11	...........	-327.56
	10296	5148.5	1.06478E+000	6.25428E-002	0.00000E+000	1.06600E+000	-1.13621E-004	11	...........	-327.56
	10301	5151	1.06981E+000	6.41610E-002	0.00000E+000	1.07100E+000	-1.14821E-004	11	...........	-327.56
	10306	5153.5	1.07481E+000	6.59002E-002	0.00000E+000	1.07600E+000	-1.11855E-004	11	...........	-327.56
	10311	5156	1.07987E+000	6.76066E-002	0.00000E+000	1.08100E+000	-1.13221E-004	11	...........	-327.56
	10316	5158.5	1.08483E+000	6.96025E-002	0.00000E+000	1.08600E+000	-1.09621E-004	11	...........	-327.56
	10321	5161	1.08974E+000	7.17818E-002	0.00000E+000	1.09100E+000	-1.13821E-004	11	...........	-327.56
	10326	5163.5	1.09476E+000	7.43777E-002	0.00000E+000	1.09600E+000	-1.11888E-004	11	...........	-327.56
	10331	5166	1.09977E+000	7.66448E-002	0.00000E+000	1.10100E+000	-1.11521E-004	11	...........	-327.56
	10336	5168.5	1.10479E+000	7.97285E-002	0.00000E+000	1.10600E+000	-1.12588E-004	11	...........	-327.56
	10341	5171	1.10981E+000	8.24074E-002	0.00000E+000	1.11100E+000	-1.15188E-004	11	...........	-327.56
	10346	5173.5	1.11471E+000	8.60318E-002	0.00000E+000	1.11600E+000	-1.12821E-004	11	...........	-327.56
	10351	5176	1.11977E+000	8.96416E-002	0.00000E+000	1.12100E+000	-1.15055E-004	11	...........	-327.56
	10356	5178.5	1.12474E+000	9.35984E-002	0.00000E+000	1.12600E+000	-1.15388E-004	11	...........	-327.56
	10361	5181	1.12970E+000	9.84050E-002	0.00000E+000	1.13100E+000	-1.15921E-004	11	...........	-327.56
	10366	5183.5	1.13470E+000	1.03092E-001	0.00000E+000	1.13600E+000	-1.09388E-004	11	...........	-327.56
	10371	5186	1.13959E+000	1.08373E-001	0.00000E+000	1.14100E+000	-1.15155E-004	11	...........	-327.56
	10376	5188.5	1.14462E+000	1.13775E-001	0.00000E+000	1.14600E+000	-1.09588E-004	11	...........	-327.56
	10381	5191	1.14961E+000	1.19979E-001	0.00000E+000	1.15100E+000	-1.08788E-004	11	...........	-327.56
	10386	5193.5	1.15465E+000	1.26051E-001	0.00000E+000	1.15600E+000	-1.13255E-004	11	...........	-327.56
	10391	5196	1.15965E+000	1.32629E-001	0.00000E+000	1.16100E+000	-1.13288E-004	11	...........	-327.56
	10396	5198.5	1.16465E+000	1.39086E-001	0.00000E+000	1.16600E+000	-1.13488E-004	11	...........	-327.56
	10401	5201	1.16955E+000	1.46394E-001	0.00000E+000	1.17100E+000	-1.16088E-004	11	...........	-327.56
	10406	5203.5	1.17457E+000	1.53610E-001	0.00000E+000	1.17600E+000	-1.11088E-004	11	...........	-327.56
	10411	5206	1.17956E+000	1.61184E-001	0.00000E+000	1.18100E+000	-1.13855E-004	11	...........	-327.56
	10416	5208.5	1.18456E+000	1.68694E-001	0.00000E+000	1.18600E+000	-1.11821E-004	11	...........	-327.56
	10421	5211	1.18954E+000	1.76758E-001	0.00000E+000	1.19100E+000	-1.10055E-004	11	...........	-327.56
	10426	5213.5	1.19448E+000	1.84810E-001	0.00000E+000	1.19600E+000	-1.14188E-004	11	...........	-327.56
	10431	5216	1.19945E+000	1.93369E-001	0.00000E+000	1.20100E+000	-1.13788E-004	11	...........	-327.56
	10436	5218.5	1.20447E+000	2.02335E-001	0.00000E+000	1.20600E+000	-1.11555E-004	11	...........	-327.56
	10441	5221	1.20950E+000	2.10984E-001	0.00000E+000	1.21100E+000	-1.12221E-004	11	...........	-327.56
	10446	5223.5	1.21446E+000	2.20876E-001	0.00000E+000	1.21600E+000	-1.12621E-004	11	...........	-327.56
	10451	5226	1.21936E+000	2.30588E-001	0.00000E+000	1.22100E+000	-1.08321E-004	11	...........	-327.56
	10456	5228.5	1.22437E+000	2.40577E-001	0.00000E+000	1.22600E+000	-1.09688E-004	11	...........	-327.56
	10461	5231	1.22937E+000	2.50897E-001	0.00000E+000	1.23100E+000	-1.10721E-004	11	...........	-327.56
	10466	5233.5	1.23438E+000	2.61531E-001	0.00000E+000	1.23600E+000	-1.07155E-004	11	...........	-327.56
	10471	5236	1.23965E+000	2.73194E-001	0.00000E+000	1.24100E+000	-1.16021E-004	12	...........	-327.56
	10476	5238.5	1.24464E+000	2.84172E-001	0.00000E+000	1.24600E+000	-1.16721E-004	12	...........	-327.56
	10481	5241	1.24958E+000	2.95288E-001	0.00000E+000	1.25100E+000	-1.16455E-004	12	...........	-327.56
	10486	5243.5	1.25460E+000	3.07426E-001	0.00000E+000	1.25600E+000	-1.11321E-004	12	...........	-327.56
	10491	5246	1.25961E+000	3.20045E-001	0.00000E+000	1.26100E+000	-1.11288E-004	12	...........	-327.56
	10496	5248.5	1.26461E+000	3.32850E-001	0.00000E+000	1.26600E+000	-1.13588E-004	12	...........	-327.56
	10501	5251	1.26951E+000	3.45439E-001	0.00000E+000	1.27100E+000	-1.12488E-004	12	...........	-327.56
	10506	5253.5	1.27453E+000	3.58919E-001	0.00000E+000	1.27600E+000	-1.14988E-004	12	...........	-327.56
	10511	5256	1.27952E+000	3.72119E-001	0.00000E+000	1.28100E+000	-1.15555E-004	12	...........	-327.56
	10516	5258.5	1.28456E+000	3.86978E-001	0.00000E+000	1.28600E+000	-1.19255E-004	12	...........	-327.56
	10521	5261	1.28954E+000	4.01009E-001	0.00000E+000	1.29100E+000	-1.12988E-004	12	...........	-327.56
	10526	5263.5	1.29442E+000	4.15991E-001	0.00000E+000	1.29600E+000	-1.17855E-004	12	...........	-327.56
	10531	5266	1.29945E+000	4.31245E-001	0.00000E+000	1.30100E+000	-1.09621E-004	12	...........	-327.56
	10536	5268.5	1.30445E+000	4.47252E-001	0.00000E+000	1.30600E+000	-1.16055E-004	12	...........	-327.56
	10541	5271	1.30947E+000	4.63207E-001	0.00000E+000	1.31100E+000	-1.14988E-004	12	...........	-327.56
	10546	5273.5	1.31446E+000	4.78433E-001	0.00000E+000	1.31600E+000	-1.19555E-004	12	...........	-327.56
	10551	5276	1.31936E+000	4.94358E-001	0.00000E+000	1.32100E+000	-1.18355E-004	12	...........	-327.56
	10556	5278.5	1.32438E+000	5.09473E-001	0.00000E+000	1.32600E+000	-1.13921E-004	12	...........	-327.56
	10561	5281	1.32942E+000	5.27406E-001	0.00000E+000	1.33100E+000	-1.13721E-004	12	...........	-327.56
	10566	5283.5	1.33437E+000	5.43903E-001	0.00000E+000	1.33600E+000	-1.15155E-004	12	...........	-327.56
	10571	5286	1.33936E+000	5.61405E-001	0.00000E+000	1.34100E+000	-1.13255E-004	12	...........	-327.56
	10576	5288.5	1.34425E+000	5.77431E-001	0.00000E+000	1.34600E+000	-1.17021E-004	12	...........	-327.56
	10581	5291	1.34928E+000	5.95933E-001	0.00000E+000	1.35100E+000	-1.17055E-004	12	...........	-327.56
	10586	5293.5	1.35426E+000	6.13599E-001	0.00000E+000	1.35600E+000	-1.12888E-004	12	...........	-327.56
	10591	5296	1.35930E+000	6.21269E-001	0.00000E+000	1.36100E+000	-1.17021E-004	12	...........	-327.56
	10596	5298.5	1.36430E+000	6.40358E-001	0.00000E+000	1.36600E+000	-1.18288E-004	12	...........	-327.56
	10601	5301	1.36928E+000	6.63100E-001	0.00000E+000	1.37100E+000	-1.15721E-004	12	...........	-327.56
	10606	5303.5	1.37427E+000	6.84224E-001	0.00000E+000	1.37600E+000	-1.16121E-004	12	...........	-327.56
	10611	5306	1.37918E+000	7.03984E-001	0.00000E+000	1.38100E+000	-1.17388E-004	12	...........	-327.56
	10616	5308.5	1.38422E+000	7.23909E-001	0.00000E+000	1.38600E+000	-1.14655E-004	12	...........	-327.56
	10621	5311	1.38920E+000	7.47111E-001	0.00000E+000	1.39100E+000	-1.13188E-004	12	...........	-327.56
	10626	5313.5	1.39421E+000	7.67512E-001	0.00000E+000	1.39600E+000	-1.16655E-004	12	...........	-327.56
	10631	5316	1.39910E+000	7.87293E-001	0.00000E+000	1.40100E+000	-1.13821E-004	12	...........	-327.56
	10636	5318.5	1.40410E+000	8.07927E-001	0.00000E+000	1.40600E+000	-1.13988E-004	12	...........	-327.56
	10641	5321	1.40911E+000	8.27253E-001	0.00000E+000	1.41100E+000	-1.15688E-004	12	...........	-327.56
	10646	5323.5	1.41413E+000	8.47868E-001	0.00000E+000	1.41600E+000	-1.15388E-004	12	...........	-327.56
	10651	5326	1.41912E+000	8.71161E-001	0.00000E+000	1.42100E+000	-1.13788E-004	12	...........	-327.56
	10656	5328.5	1.42398E+000	8.95821E-001	0.00000E+000	1.42600E+000	-1.14288E-004	12	...........	-327.56
	10661	5331	1.42904E+000	9.17006E-001	0.00000E+000	1.43100E+000	-1.14421E-004	12	...........	-327.56
	10666	5333.5	1.43400E+000	9.41684E-001	0.00000E+000	1.43600E+000	-1.11555E-004	12	...........	-327.56
	10671	5336	1.43904E+000	9.56719E-001	0.00000E+000	1.44100E+000	-1.12021E-004	12	...........	-327.56
	10676	5338.5	1.44401E+000	9.73321E-001	0.00000E+000	1.44600E+000	-1.14088E-004	12	...........	-327.56
	10681	5341	1.44892E+000	9.91820E-001	0.00000E+000	1.45100E+000	-1.16988E-004	12	...........	-327.56
	10686	5343.5	1.45392E+000	1.00953E+000	0.00000E+000	1.45600E+000	-1.13521E-004	12	...........	-327.56
	10691	5346	1.45895E+000	1.03526E+000	0.00000E+000	1.46100E+000	-1.11888E-004	12	...........	-327.56
	10696	5348.5	1.46395E+000	1.05572E+000	0.00000E+000	1.46600E+000	-1.13855E-004	12	...........	-327.56
	10701	5351	1.46897E+000	1.07670E+000	0.00000E+000	1.47100E+000	-1.13421E-004	12	...........	-327.56
	10706	5353.5	1.47385E+000	1.10073E+000	0.00000E+000	1.47600E+000	-1.17621E-004	12	...........	-327.56
	10711	5356	1.47885E+000	1.12127E+000	0.00000E+000	1.48100E+000	-1.15055E-004	12	...........	-327.56
	10716	5358.5	1.48387E+000	1.13980E+000	0.00000E+000	1.48600E+000	-1.12388E-004	12	...........	-327.56
	10721	5361	1.48886E+000	1.16008E+000	0.00000E+000	1.49100E+000	-1.14155E-004	12	...........	-327.56
	10726	5363.5	1.49387E+000	1.17792E+000	0.00000E+000	1.49600E+000	-1.17221E-004	12	...........	-327.56
	10731	5366	1.49876E+000	1.19724E+000	0.00000E+000	1.50100E+000	-1.18921E-004	12	...........	-327.56
	10736	5368.5	1.50384E+000	1.21897E+000	0.00000E+000	1.50600E+000	-1.16455E-004	12	...........	-327.56
	10741	5371	1.50878E+000	1.23531E+000	0.00000E+000	1.51100E+000	-1.14255E-004	12	...........	-327.56
	10746	5373.5	1.51382E+000	1.25307E+000	0.00000E+000	1.51600E+000	-1.14421E-004	12	...........	-327.56
	10751	5376	1.51882E+000	1.27279E+000	0.00000E+000	1.52100E+000	-1.19221E-004	12	...........	-327.56
	10756	5378.5	1.52373E+000	1.29084E+000	0.00000E+000	1.52600E+000	-1.13821E-004	12	...........	-327.56
	10761	5381	1.52871E+000	1.30913E+000	0.00000E+000	1.53100E+000	-1.15488E-004	12	...........	-327.56
	10766	5383.5	1.53375E+000	1.32633E+000	0.00000E+000	1.53600E+000	-1.20255E-004	12	...........	-327.56
	10771	5386	1.53871E+000	1.34471E+000	0.00000E+000	1.54100E+000	-1.14388E-004	12	...........	-327.56
	10776	5388.5	1.54372E+000	1.36160E+000	0.00000E+000	1.54600E+000	-1.16721E-004	12	...........	-327.56
	10781	5391	1.54870E+000	1.38059E+000	0.00000E+000	1.55100E+000	-1.15155E-004	12	...........	-327.56
	10786	5393.5	1.55362E+000	1.39374E+000	0.00000E+000	1.55600E+000	-1.13688E-004	12	...........	-327.56
	10791	5396	1.55864E+000	1.41404E+000	0.00000E+000	1.56100E+000	-1.09455E-004	12	...........	-327.56
	10796	5398.5	1.56364E+000	1.43259E+000	0.00000E+000	1.56600E+000	-1.12955E-004	12	...........	-327.56
	10801	5401	1.56865E+000	1.44639E+000	0.00000E+000	1.57100E+000	-1.10555E-004	12	...........	-327.56
	10806	5403.5	1.57366E+000	1.47097E+000	0.00000E+000	1.57600E+000	-1.16255E-004	12	...........	-327.56
	10811	5406	1.57858E+000	1.48641E+000	0.00000E+000	1.58100E+000	-1.13288E-004	12	...........	-327.56
	10816	5408.5	1.58357E+000	1.50610E+000	0.00000E+000	1.58600E+000	-1.12688E-004	12	...........	-327.56
	10821	5411	1.58862E+000	1.52473E+000	0.00000E+000	1.59100E+000	-1.15155E-004	12	...........	-327.56
	10826	5413.5	1.59359E+000	1.54134E+000	0.00000E+000	1.59600E+000	-1.15821E-004	12	...........	-327.56
	10831	5416	1.59861E+000	1.55679E+000	0.00000E+000	1.60100E+000	-1.15521E-004	12	...........	-327.56
	10836	5418.5	1.60354E+000	1.57096E+000	0.00000E+000	1.60600E+000	-1.17188E-004	12	...........	-327.56
	10841	5421	1.60854E+000	1.58671E+000	0.00000E+000	1.61100E+000	-1.15821E-004	12	...........	-327.56
	10846	5423.5	1.61353E+000	1.60773E+000	0.00000E+000	1.61600E+000	-1.12588E-004	12	...........	-327.56
	10851	5426	1.61858E+000	1.62353E+000	0.00000E+000	1.62100E+000	-1.15555E-004	12	...........	-327.56
	10856	5428.5	1.62355E+000	1.63977E+000	0.00000E+000	1.62600E+000	-1.13588E-004	12	...........	-327.56
	10861	5431	1.62849E+000	1.65635E+000	0.00000E+000	1.63100E+000	-1.15855E-004	12	...........	-327.56
	10866	5433.5	1.63353E+000	1.66964E+000	0.00000E+000	1.63600E+000	-1.17155E-004	12	...........	-327.56
	10871	5436	1.63848E+000	1.68119E+000	0.00000E+000	1.64100E+000	-1.18821E-004	12	...........	-327.56
	10876	5438.5	1.64349E+000	1.69051E+000	0.00000E+000	1.64600E+000	-1.11821E-004	12	...........	-327.56
	10881	5441	1.64851E+000	1.70371E+000	0.00000E+000	1.65100E+000	-1.10155E-004	12	...........	-327.56
	10886	5443.5	1.65342E+000	1.71704E+000	0.00000E+000	1.65600E+000	-1.15921E-004	12	...........	-327.56
	10891	5446	1.65841E+000	1.73353E+000	0.00000E+000	1.66100E+000	-1.13555E-004	12	...........	-327.56
	10896	5448.5	1.66344E+000	1.75051E+000	0.00000E+000	1.66600E+000	-1.14188E-004	12	...........	-327.56
	10901	5451	1.66848E+000	1.76485E+000	0.00000E+000	1.67100E+000	-1.15355E-004	12	...........	-327.56
	10906	5453.5	1.67348E+000	1.77807E+000	0.00000E+000	1.67600E+000	-1.10921E-004	12	...........	-327.56
	10911	5456	1.67837E+000	1.79319E+000	0.00000E+000	1.68100E+000	-1.15555E-004	12	...........	-327.56
	10916	5458.5	1.68341E+000	1.80671E+000	0.00000E+000	1.68600E+000	-1.15955E-004	12	...........	-327.56
	10921	5461	1.68840E+000	1.82168E+000	0.00000E+000	1.69100E+000	-1.12155E-004	12	...........	-327.56
	10926	5463.5	1.69344E+000	1.83250E+000	0.00000E+000	1.69600E+000	-1.11221E-004	12	...........	-327.56
	10930	5465.5	1.69745E+000	1.84473E+000	0.00000E+000	1.70000E+000	-1.16155E-004	12	...........	-327.56