File: testing/data/240902_03_MCL13_cswWE_CV2_750C_CO2.DTA
EXPLAIN
TAG	CV
TITLE	LABEL	Cyclic Voltammetry	Test Identifier
DATE	LABEL	9/2/2024	Date
TIME	LABEL	16:19:50	Time
NOTES	NOTES	5	Notes...
	cswWE - carbon steel wire
cspWE - carbon steel plate 2x2 tapered

Carbon steel plate counter electrode
Carbon steel wire reference electrode
PSTAT	PSTAT	REF3000-48128	Potentiostat
VINIT	POTEN	0.00000E+000	T	Initial E (V)
VLIMIT1	POTEN	1.70000E+000	F	Scan Limit 1 (V)
VLIMIT2	POTEN	-4.00000E-001	F	Scan Limit 2 (V)
VFINAL	POTEN	1.70000E+000	F	Final E (V)
SCANRATE	QUANT	2.00000E+000	Scan Rate (mV/s)
STEPSIZE	QUANT	1.00000E+000	Step Size (mV)
CYCLES	IQUANT	2	Cycles (#)
IMODE	SELECTOR	0	I/E Range Mode
IRANGE	QUANT	3.00000E-001	Max Current (mA)
AREA	QUANT	1.00000E+000	Sample Area (cm^2)
EQDELAY	QUANT	0.00000E+000	Equil. Time (s)
IRCOMP	SELECTOR	0	IRComp
PFCOR	QUANT	5.00000E+001	PF Corr. (ohm)
SAMPLINGMODE	SELECTOR	1	Sampling Mode
EOC	QUANT	-0.0705966	Open Circuit (V)
ELECTRODETYPE	SELECTOR	0	Electrode Type
STRIPPING	TOGGLE	F	Used for Stripping
SEQUENCER	TOGGLE	TRUE	Run as Sequence
PSTATMODEL	IQUANT	5	Pstat Model
PSTATSECTION	LABEL	REF3000-48128	Pstat Section
PSTATSERIALNO	LABEL	48128	Pstat Serial Number
CTRLMODE	IQUANT	1	Control Mode
ELECTROMETER	IQUANT	0	RE=0 or CS=1
IESTAB	IQUANT	2	I/E Stability
CASPEED	IQUANT	4	Control Amp Speed
CONVENTION	IQUANT	1	Current Convention
ICHRANGE	IQUANT	2	Ich Range
ICHRANGEMODE	TOGGLE	F	Ich Auto Range
ICHOFFSETENABLE	TOGGLE	F	Ich Offset Enable
ICHOFFSET	QUANT	0	Ich Offset (V)
ICHFILTER	IQUANT	3	Ich Filter
VCHRANGE	IQUANT	2	Vch Range
VCHRANGEMODE	TOGGLE	F	Vch Auto Range
VCHOFFSETENABLE	TOGGLE	F	Vch Offset Enable
VCHOFFSET	QUANT	0	Vch Offset (V)
VCHFILTER	IQUANT	3	Vch Filter
ACHRANGE	IQUANT	2	Ach Range
ACHOFFSETENABLE	TOGGLE	F	Ach Offset Enable
ACHOFFSET	QUANT	0	Ach Offset (V)
ACHFILTER	IQUANT	1	Ach Filter
IERANGELOWERLIMIT	IQUANT	2	I/E Range Lower Limit
IERANGEMODE	TOGGLE	T	I/E AutoRange
IERANGE	IQUANT	9	I/E Range
POSFEEDENABLE	TOGGLE	F	Positive Feedback IR Comp
POSFEEDRESISTANCE	QUANT	0	Positive Feedback Resistance (ohm)
ACHSELECT	IQUANT	4	Ach Select
SENSECABLEID	IQUANT	14	Sense Cable ID
PWRCABLEID	IQUANT	7	Power Cable ID
DCCALDATE	LABEL	8/16/2024	DC Calibration Date
ACCALDATE	LABEL	8/16/2024	AC Calibration Date
THERMOSELECT	IQUANT	1	Thermo Select
FRAMEWORKVERSION	LABEL	7.10.3	Framework Version
INSTRUMENTVERSION	LABEL	4.91	Instrument Version
COMMVERSION	LABEL	5.10	Communications Version
CPUPLDVERSION	LABEL	6.00	CPU PLD Version
CTRLPLDVERSION	LABEL	3.21	CTRL PLD Version
PSTATPLDVERSION	LABEL	0.00	PSTAT PLD Version
COMPLIANCEVOLTAGE	IQUANT	0	Compliance Voltage
CURVE1	TABLE
	Pt	T	Vf	Im	Vu	Sig	Ach	IERange	Over	Temp
	#	s	V vs. Ref.	A	V	V	V	#	bits	deg C
	0	0.5	-7.04680E-002	-1.67464E-006	0.00000E+000	-7.06000E-002	-9.18214E-005	9	...........	-327.56
	8	4.5	-6.26115E-002	6.70400E-004	0.00000E+000	-6.26000E-002	-9.83881E-005	9	...........	-327.56
	16	8.5	-5.46883E-002	1.39679E-003	0.00000E+000	-5.45999E-002	-9.12214E-005	9	...........	-327.56
	24	12.5	-4.66903E-002	1.52987E-003	0.00000E+000	-4.65999E-002	-9.31548E-005	9	...........	-327.56
	32	16.5	-3.87374E-002	1.89885E-003	0.00000E+000	-3.86000E-002	-9.14548E-005	9	...........	-327.56
	40	20.5	-3.06592E-002	1.03888E-003	0.00000E+000	-3.06000E-002	-9.98881E-005	9	...........	-327.56
	48	24.5	-2.26565E-002	1.29829E-003	0.00000E+000	-2.25999E-002	-1.04121E-004	9	...........	-327.56
	56	28.5	-1.46874E-002	1.48712E-003	0.00000E+000	-1.45999E-002	-1.03455E-004	9	...........	-327.56
	64	32.5	-6.83538E-003	2.02235E-003	0.00000E+000	-6.59996E-003	-1.02055E-004	9	...........	-327.56
	72	36.5	1.22072E-003	2.55268E-003	0.00000E+000	1.40005E-003	-1.06588E-004	10	...........	-327.56
	80	40.5	9.20769E-003	3.41519E-003	0.00000E+000	9.40007E-003	-1.05955E-004	10	...........	-327.56
	88	44.5	1.71565E-002	3.22080E-003	0.00000E+000	1.74000E-002	-1.06155E-004	10	...........	-327.56
	96	48.5	2.51817E-002	2.69885E-003	0.00000E+000	2.54000E-002	-1.00588E-004	10	...........	-327.56
	104	52.5	3.32352E-002	2.82699E-003	0.00000E+000	3.34001E-002	-1.06221E-004	10	...........	-327.56
	112	56.5	4.11454E-002	3.15655E-003	0.00000E+000	4.14001E-002	-1.07188E-004	10	...........	-327.56
	120	60.5	4.91692E-002	3.19219E-003	0.00000E+000	4.94000E-002	-1.01921E-004	10	...........	-327.56
	128	64.5	5.71923E-002	3.68954E-003	0.00000E+000	5.74000E-002	-1.04321E-004	10	...........	-327.56
	136	68.5	6.51065E-002	3.53506E-003	0.00000E+000	6.54001E-002	-1.05988E-004	10	...........	-327.56
	144	72.5	7.31148E-002	4.25877E-003	0.00000E+000	7.34000E-002	-1.02755E-004	10	...........	-327.56
	152	76.5	8.11487E-002	4.06654E-003	0.00000E+000	8.14000E-002	-1.00788E-004	10	...........	-327.56
	160	80.5	8.91326E-002	6.09094E-003	0.00000E+000	8.94001E-002	-1.02688E-004	10	...........	-327.56
	168	84.5	9.70874E-002	4.98899E-003	0.00000E+000	9.74001E-002	-1.01721E-004	10	...........	-327.56
	176	88.5	1.05073E-001	5.42431E-003	0.00000E+000	1.05400E-001	-1.05288E-004	10	...........	-327.56
	184	92.5	1.13038E-001	7.02528E-003	0.00000E+000	1.13400E-001	-1.04055E-004	10	...........	-327.56
	192	96.5	1.20980E-001	9.62307E-003	0.00000E+000	1.21400E-001	-1.02655E-004	10	...........	-327.56
	200	100.5	1.29045E-001	6.36166E-003	0.00000E+000	1.29400E-001	-1.03788E-004	10	...........	-327.56
	208	104.5	1.37036E-001	7.12014E-003	0.00000E+000	1.37400E-001	-1.02721E-004	10	...........	-327.56
	216	108.5	1.44978E-001	8.57462E-003	0.00000E+000	1.45400E-001	-1.03588E-004	10	...........	-327.56
	224	112.5	1.52996E-001	8.97856E-003	0.00000E+000	1.53400E-001	-1.02488E-004	10	...........	-327.56
	232	116.5	1.61005E-001	8.40521E-003	0.00000E+000	1.61400E-001	-1.00588E-004	10	...........	-327.56
	240	120.5	1.68951E-001	8.57922E-003	0.00000E+000	1.69400E-001	-1.01988E-004	10	...........	-327.56
	248	124.5	1.76968E-001	9.21965E-003	0.00000E+000	1.77400E-001	-1.03721E-004	10	...........	-327.56
	256	128.5	1.84992E-001	1.03528E-002	0.00000E+000	1.85400E-001	-1.01621E-004	10	...........	-327.56
	264	132.5	1.92891E-001	9.72283E-003	0.00000E+000	1.93400E-001	-1.05855E-004	10	...........	-327.56
	272	136.5	2.00942E-001	9.67400E-003	0.00000E+000	2.01400E-001	-1.02455E-004	10	...........	-327.56
	280	140.5	2.08904E-001	1.44018E-002	0.00000E+000	2.09400E-001	-1.01821E-004	10	...........	-327.56
	288	144.5	2.16882E-001	1.36256E-002	0.00000E+000	2.17400E-001	-1.07321E-004	10	...........	-327.56
	296	148.5	2.24852E-001	1.21793E-002	0.00000E+000	2.25400E-001	-1.02155E-004	10	...........	-327.56
	304	152.5	2.32874E-001	1.42503E-002	0.00000E+000	2.33400E-001	-1.02388E-004	10	...........	-327.56
	312	156.5	2.40873E-001	1.40757E-002	0.00000E+000	2.41400E-001	-1.04355E-004	10	...........	-327.56
	320	160.5	2.48764E-001	1.68489E-002	0.00000E+000	2.49400E-001	-9.89548E-005	10	...........	-327.56
	328	164.5	2.56815E-001	1.43253E-002	0.00000E+000	2.57400E-001	-9.88881E-005	10	...........	-327.56
	336	168.5	2.64827E-001	1.63196E-002	0.00000E+000	2.65400E-001	-1.01221E-004	10	...........	-327.56
	344	172.5	2.72771E-001	1.52514E-002	0.00000E+000	2.73400E-001	-9.97881E-005	10	...........	-327.56
	352	176.5	2.80756E-001	1.70799E-002	0.00000E+000	2.81400E-001	-1.01121E-004	10	...........	-327.56
	360	180.5	2.88806E-001	1.62848E-002	0.00000E+000	2.89400E-001	-1.02488E-004	10	...........	-327.56
	368	184.5	2.96719E-001	1.78130E-002	0.00000E+000	2.97400E-001	-1.01855E-004	10	...........	-327.56
	376	188.5	3.04709E-001	1.99729E-002	0.00000E+000	3.05400E-001	-9.71214E-005	10	...........	-327.56
	384	192.5	3.12680E-001	2.27217E-002	0.00000E+000	3.13400E-001	-9.95214E-005	10	...........	-327.56
	392	196.5	3.20618E-001	1.98447E-002	0.00000E+000	3.21400E-001	-9.96881E-005	10	...........	-327.56
	400	200.5	3.28643E-001	2.06209E-002	0.00000E+000	3.29400E-001	-1.00088E-004	10	...........	-327.56
	408	204.5	3.36639E-001	2.52802E-002	0.00000E+000	3.37400E-001	-9.71881E-005	10	...........	-327.56
	416	208.5	3.44616E-001	2.64795E-002	0.00000E+000	3.45400E-001	-9.79548E-005	10	...........	-327.56
	424	212.5	3.52582E-001	2.54759E-002	0.00000E+000	3.53400E-001	-9.95881E-005	10	...........	-327.56
	432	216.5	3.60869E-001	2.76950E-002	0.00000E+000	3.61400E-001	-1.02021E-004	11	...........	-327.56
	440	220.5	3.68872E-001	2.92149E-002	0.00000E+000	3.69400E-001	-1.04688E-004	11	...........	-327.56
	448	224.5	3.76802E-001	3.17059E-002	0.00000E+000	3.77400E-001	-1.05088E-004	11	...........	-327.56
	456	228.5	3.84805E-001	3.32229E-002	0.00000E+000	3.85400E-001	-9.95548E-005	11	...........	-327.56
	464	232.5	3.92842E-001	3.47687E-002	0.00000E+000	3.93400E-001	-1.00355E-004	11	...........	-327.56
	472	236.5	4.00772E-001	3.76340E-002	0.00000E+000	4.01400E-001	-1.04355E-004	11	...........	-327.56
	480	240.5	4.08790E-001	3.80452E-002	0.00000E+000	4.09400E-001	-1.00988E-004	11	...........	-327.56
	488	244.5	4.16831E-001	3.82223E-002	0.00000E+000	4.17400E-001	-1.04788E-004	11	...........	-327.56
	496	248.5	4.24755E-001	3.75176E-002	0.00000E+000	4.25400E-001	-9.95881E-005	11	...........	-327.56
	504	252.5	4.32778E-001	3.60787E-002	0.00000E+000	4.33400E-001	-1.02821E-004	11	...........	-327.56
	512	256.5	4.40836E-001	3.39187E-002	0.00000E+000	4.41400E-001	-1.03988E-004	11	...........	-327.56
	520	260.5	4.48725E-001	3.10766E-002	0.00000E+000	4.49400E-001	-1.03521E-004	11	...........	-327.56
	528	264.5	4.56776E-001	3.00846E-002	0.00000E+000	4.57400E-001	-9.87881E-005	11	...........	-327.56
	536	268.5	4.64818E-001	2.80137E-002	0.00000E+000	4.65400E-001	-1.02021E-004	11	...........	-327.56
	544	272.5	4.72565E-001	2.45216E-002	0.00000E+000	4.73400E-001	-9.55881E-005	10	...........	-327.56
	552	276.5	4.80554E-001	2.18419E-002	0.00000E+000	4.81400E-001	-9.80214E-005	10	...........	-327.56
	560	280.5	4.88603E-001	1.96523E-002	0.00000E+000	4.89400E-001	-9.87548E-005	10	...........	-327.56
	568	284.5	4.96635E-001	1.82149E-002	0.00000E+000	4.97400E-001	-9.92214E-005	10	...........	-327.56
	576	288.5	5.04576E-001	1.76164E-002	0.00000E+000	5.05400E-001	-9.76881E-005	10	...........	-327.56
	584	292.5	5.12569E-001	1.73055E-002	0.00000E+000	5.13400E-001	-9.79548E-005	10	...........	-327.56
	592	296.5	5.20607E-001	1.55390E-002	0.00000E+000	5.21400E-001	-9.53214E-005	10	...........	-327.56
	600	300.5	5.28527E-001	1.54384E-002	0.00000E+000	5.29400E-001	-9.77214E-005	10	...........	-327.56
	608	304.5	5.36552E-001	1.57332E-002	0.00000E+000	5.37400E-001	-1.02055E-004	10	...........	-327.56
	616	308.5	5.44569E-001	1.66933E-002	0.00000E+000	5.45400E-001	-9.81214E-005	10	...........	-327.56
	624	312.5	5.52539E-001	1.37170E-002	0.00000E+000	5.53400E-001	-1.01921E-004	10	...........	-327.56
	632	316.5	5.60577E-001	1.33010E-002	0.00000E+000	5.61400E-001	-9.88214E-005	10	...........	-327.56
	640	320.5	5.68610E-001	1.28603E-002	0.00000E+000	5.69400E-001	-9.93881E-005	10	...........	-327.56
	648	324.5	5.76509E-001	1.33730E-002	0.00000E+000	5.77400E-001	-9.92881E-005	10	...........	-327.56
	656	328.5	5.84552E-001	1.20503E-002	0.00000E+000	5.85400E-001	-1.00955E-004	10	...........	-327.56
	664	332.5	5.92591E-001	1.19579E-002	0.00000E+000	5.93400E-001	-9.77881E-005	10	...........	-327.56
	672	336.5	6.00601E-001	1.16110E-002	0.00000E+000	6.01400E-001	-1.01355E-004	10	...........	-327.56
	680	340.5	6.08544E-001	1.15493E-002	0.00000E+000	6.09400E-001	-9.78881E-005	10	...........	-327.56
	688	344.5	6.16558E-001	1.17341E-002	0.00000E+000	6.17400E-001	-1.04821E-004	10	...........	-327.56
	696	348.5	6.24576E-001	1.10256E-002	0.00000E+000	6.25400E-001	-9.68214E-005	10	...........	-327.56
	704	352.5	6.32513E-001	1.09790E-002	0.00000E+000	6.33400E-001	-9.85881E-005	10	...........	-327.56
	712	356.5	6.40535E-001	1.11448E-002	0.00000E+000	6.41400E-001	-9.73881E-005	10	...........	-327.56
	720	360.5	6.48581E-001	1.07760E-002	0.00000E+000	6.49400E-001	-1.00288E-004	10	...........	-327.56
	728	364.5	6.56478E-001	1.16901E-002	0.00000E+000	6.57400E-001	-9.91548E-005	10	...........	-327.56
	736	368.5	6.64468E-001	1.27259E-002	0.00000E+000	6.65400E-001	-1.00888E-004	10	...........	-327.56
	744	372.5	6.72548E-001	1.03681E-002	0.00000E+000	6.73400E-001	-9.62214E-005	10	...........	-327.56
	752	376.5	6.80447E-001	1.03379E-002	0.00000E+000	6.81400E-001	-1.02521E-004	10	...........	-327.56
	760	380.5	6.88479E-001	1.03305E-002	0.00000E+000	6.89400E-001	-9.98214E-005	10	...........	-327.56
	768	384.5	6.96515E-001	1.03891E-002	0.00000E+000	6.97400E-001	-9.80881E-005	10	...........	-327.56
	776	388.5	7.04410E-001	1.11089E-002	0.00000E+000	7.05400E-001	-9.68881E-005	10	...........	-327.56
	784	392.5	7.12444E-001	1.14133E-002	0.00000E+000	7.13400E-001	-9.95214E-005	10	...........	-327.56
	792	396.5	7.20447E-001	1.02075E-002	0.00000E+000	7.21400E-001	-9.48214E-005	10	...........	-327.56
	800	400.5	7.28458E-001	1.03145E-002	0.00000E+000	7.29400E-001	-9.83214E-005	10	...........	-327.56
	808	404.5	7.36398E-001	1.02161E-002	0.00000E+000	7.37400E-001	-9.85881E-005	10	...........	-327.56
	816	408.5	7.44426E-001	1.02484E-002	0.00000E+000	7.45400E-001	-9.96548E-005	10	...........	-327.56
	824	412.5	7.52459E-001	1.03930E-002	0.00000E+000	7.53400E-001	-9.56214E-005	10	...........	-327.56
	832	416.5	7.60364E-001	1.05116E-002	0.00000E+000	7.61400E-001	-9.67881E-005	10	...........	-327.56
	840	420.5	7.68386E-001	1.03873E-002	0.00000E+000	7.69400E-001	-9.61214E-005	10	...........	-327.56
	848	424.5	7.76422E-001	1.04150E-002	0.00000E+000	7.77400E-001	-1.00788E-004	10	...........	-327.56
	856	428.5	7.84347E-001	1.06800E-002	0.00000E+000	7.85400E-001	-9.75548E-005	10	...........	-327.56
	864	432.5	7.92360E-001	1.07641E-002	0.00000E+000	7.93400E-001	-9.70214E-005	10	...........	-327.56
	872	436.5	8.00396E-001	1.09639E-002	0.00000E+000	8.01400E-001	-9.61548E-005	10	...........	-327.56
	880	440.5	8.08312E-001	1.06750E-002	0.00000E+000	8.09400E-001	-9.93214E-005	10	...........	-327.56
	888	444.5	8.16336E-001	1.07942E-002	0.00000E+000	8.17400E-001	-9.67881E-005	10	...........	-327.56
	896	448.5	8.24332E-001	1.08654E-002	0.00000E+000	8.25400E-001	-9.87881E-005	10	...........	-327.56
	904	452.5	8.32247E-001	1.09131E-002	0.00000E+000	8.33400E-001	-9.78214E-005	10	...........	-327.56
	912	456.5	8.40282E-001	1.09705E-002	0.00000E+000	8.41400E-001	-9.67214E-005	10	...........	-327.56
	920	460.5	8.48324E-001	1.11101E-002	0.00000E+000	8.49400E-001	-9.84548E-005	10	...........	-327.56
	928	464.5	8.56316E-001	1.14282E-002	0.00000E+000	8.57400E-001	-9.85881E-005	10	...........	-327.56
	936	468.5	8.64271E-001	1.12652E-002	0.00000E+000	8.65400E-001	-9.65214E-005	10	...........	-327.56
	944	472.5	8.72296E-001	1.13756E-002	0.00000E+000	8.73400E-001	-9.79214E-005	10	...........	-327.56
	952	476.5	8.80303E-001	1.16016E-002	0.00000E+000	8.81400E-001	-9.86214E-005	10	...........	-327.56
	960	480.5	8.88238E-001	1.18019E-002	0.00000E+000	8.89400E-001	-9.69214E-005	10	...........	-327.56
	968	484.5	8.96239E-001	1.18599E-002	0.00000E+000	8.97400E-001	-9.52548E-005	10	...........	-327.56
	976	488.5	9.04270E-001	1.21641E-002	0.00000E+000	9.05400E-001	-9.95548E-005	10	...........	-327.56
	984	492.5	9.12196E-001	1.22718E-002	0.00000E+000	9.13400E-001	-9.45881E-005	10	...........	-327.56
	992	496.5	9.20215E-001	1.24730E-002	0.00000E+000	9.21400E-001	-9.68214E-005	10	...........	-327.56
	1000	500.5	9.28210E-001	1.27010E-002	0.00000E+000	9.29400E-001	-9.57881E-005	10	...........	-327.56
	1008	504.5	9.36099E-001	1.29048E-002	0.00000E+000	9.37400E-001	-1.01488E-004	10	...........	-327.56
	1016	508.5	9.44147E-001	1.34982E-002	0.00000E+000	9.45400E-001	-9.74881E-005	10	...........	-327.56
	1024	512.5	9.52186E-001	1.39484E-002	0.00000E+000	9.53400E-001	-9.44881E-005	10	...........	-327.56
	1032	516.5	9.60032E-001	2.29934E-002	0.00000E+000	9.61400E-001	-9.23214E-005	10	...........	-327.56
	1040	520.5	9.68111E-001	1.48942E-002	0.00000E+000	9.69400E-001	-9.96548E-005	10	...........	-327.56
	1048	524.5	9.76131E-001	1.54781E-002	0.00000E+000	9.77400E-001	-9.71548E-005	10	...........	-327.56
	1056	528.5	9.84123E-001	1.56066E-002	0.00000E+000	9.85400E-001	-9.75214E-005	10	...........	-327.56
	1064	532.5	9.91997E-001	1.83574E-002	0.00000E+000	9.93400E-001	-9.70881E-005	10	...........	-327.56
	1072	536.5	1.00005E+000	1.90575E-002	0.00000E+000	1.00140E+000	-9.97881E-005	10	...........	-327.56
	1080	540.5	1.00808E+000	1.88606E-002	0.00000E+000	1.00940E+000	-9.37214E-005	10	...........	-327.56
	1088	544.5	1.01597E+000	1.95850E-002	0.00000E+000	1.01740E+000	-1.01021E-004	10	...........	-327.56
	1096	548.5	1.02397E+000	2.08301E-002	0.00000E+000	1.02540E+000	-9.61881E-005	10	...........	-327.56
	1104	552.5	1.03196E+000	2.28411E-002	0.00000E+000	1.03340E+000	-9.71548E-005	10	...........	-327.56
	1112	556.5	1.03993E+000	2.42668E-002	0.00000E+000	1.04140E+000	-9.90214E-005	10	...........	-327.56
	1120	560.5	1.04793E+000	2.57625E-002	0.00000E+000	1.04940E+000	-9.37548E-005	10	...........	-327.56
	1128	564.5	1.05623E+000	2.69966E-002	0.00000E+000	1.05740E+000	-9.86214E-005	11	...........	-327.56
	1136	568.5	1.06410E+000	2.73541E-002	0.00000E+000	1.06540E+000	-9.99881E-005	11	...........	-327.56
	1144	572.5	1.07218E+000	2.68416E-002	0.00000E+000	1.07340E+000	-9.63881E-005	11	...........	-327.56
	1152	576.5	1.08020E+000	2.64664E-002	0.00000E+000	1.08140E+000	-9.95214E-005	11	...........	-327.56
	1160	580.5	1.08815E+000	2.57993E-002	0.00000E+000	1.08940E+000	-9.54881E-005	11	...........	-327.56
	1168	584.5	1.09614E+000	2.53561E-002	0.00000E+000	1.09740E+000	-9.93214E-005	11	...........	-327.56
	1176	588.5	1.10418E+000	2.50791E-002	0.00000E+000	1.10540E+000	-9.63214E-005	11	...........	-327.56
	1184	592.5	1.11219E+000	2.51281E-002	0.00000E+000	1.11340E+000	-9.89548E-005	11	...........	-327.56
	1192	596.5	1.12010E+000	2.50594E-002	0.00000E+000	1.12140E+000	-9.75881E-005	11	...........	-327.56
	1200	600.5	1.12811E+000	2.67507E-002	0.00000E+000	1.12940E+000	-9.88214E-005	11	...........	-327.56
	1208	604.5	1.13612E+000	2.70003E-002	0.00000E+000	1.13740E+000	-9.72881E-005	11	...........	-327.56
	1216	608.5	1.14403E+000	2.80382E-002	0.00000E+000	1.14540E+000	-1.00988E-004	11	...........	-327.56
	1224	612.5	1.15205E+000	2.94505E-002	0.00000E+000	1.15340E+000	-9.82214E-005	11	...........	-327.56
	1232	616.5	1.16009E+000	3.24173E-002	0.00000E+000	1.16140E+000	-1.02221E-004	11	...........	-327.56
	1240	620.5	1.16797E+000	3.33593E-002	0.00000E+000	1.16940E+000	-9.76881E-005	11	...........	-327.56
	1248	624.5	1.17600E+000	3.52899E-002	0.00000E+000	1.17740E+000	-9.85881E-005	11	...........	-327.56
	1256	628.5	1.18407E+000	3.77148E-002	0.00000E+000	1.18540E+000	-9.62214E-005	11	...........	-327.56
	1264	632.5	1.19195E+000	4.06361E-002	0.00000E+000	1.19340E+000	-9.72881E-005	11	...........	-327.56
	1272	636.5	1.19998E+000	4.37008E-002	0.00000E+000	1.20140E+000	-9.79548E-005	11	...........	-327.56
	1280	640.5	1.20801E+000	4.77391E-002	0.00000E+000	1.20940E+000	-1.01655E-004	11	...........	-327.56
	1288	644.5	1.21601E+000	5.16785E-002	0.00000E+000	1.21740E+000	-9.37214E-005	11	...........	-327.56
	1296	648.5	1.22395E+000	5.63632E-002	0.00000E+000	1.22540E+000	-1.00955E-004	11	...........	-327.56
	1304	652.5	1.23197E+000	6.13123E-002	0.00000E+000	1.23340E+000	-9.91881E-005	11	...........	-327.56
	1312	656.5	1.23999E+000	6.58204E-002	0.00000E+000	1.24140E+000	-9.64214E-005	11	...........	-327.56
	1320	660.5	1.24794E+000	7.40188E-002	0.00000E+000	1.24940E+000	-1.01221E-004	11	...........	-327.56
	1328	664.5	1.25594E+000	8.25096E-002	0.00000E+000	1.25740E+000	-9.84548E-005	11	...........	-327.56
	1336	668.5	1.26395E+000	9.23544E-002	0.00000E+000	1.26540E+000	-9.64881E-005	11	...........	-327.56
	1344	672.5	1.27191E+000	1.02057E-001	0.00000E+000	1.27340E+000	-9.54881E-005	11	...........	-327.56
	1352	676.5	1.27988E+000	1.11120E-001	0.00000E+000	1.28140E+000	-9.69881E-005	11	...........	-327.56
	1360	680.5	1.28787E+000	1.25349E-001	0.00000E+000	1.28940E+000	-1.00388E-004	11	...........	-327.56
	1368	684.5	1.29580E+000	1.39915E-001	0.00000E+000	1.29740E+000	-9.75881E-005	11	...........	-327.56
	1376	688.5	1.30379E+000	1.54453E-001	0.00000E+000	1.30540E+000	-9.86214E-005	11	...........	-327.56
	1384	692.5	1.31177E+000	1.65693E-001	0.00000E+000	1.31340E+000	-9.47214E-005	11	...........	-327.56
	1392	696.5	1.31966E+000	1.82236E-001	0.00000E+000	1.32140E+000	-9.98214E-005	11	...........	-327.56
	1400	700.5	1.32767E+000	1.97370E-001	0.00000E+000	1.32940E+000	-9.47214E-005	11	...........	-327.56
	1408	704.5	1.33563E+000	2.14640E-001	0.00000E+000	1.33740E+000	-9.65548E-005	11	...........	-327.56
	1416	708.5	1.34357E+000	2.32104E-001	0.00000E+000	1.34540E+000	-9.53548E-005	11	...........	-327.56
	1424	712.5	1.35152E+000	2.49217E-001	0.00000E+000	1.35340E+000	-9.31881E-005	11	...........	-327.56
	1432	716.5	1.35950E+000	2.66130E-001	0.00000E+000	1.36140E+000	-9.15548E-005	11	...........	-327.56
	1440	720.5	1.36781E+000	2.82884E-001	0.00000E+000	1.36940E+000	-9.92881E-005	12	...........	-327.56
	1448	724.5	1.37576E+000	2.99618E-001	0.00000E+000	1.37740E+000	-9.37881E-005	12	...........	-327.56
	1456	728.5	1.38376E+000	3.17672E-001	0.00000E+000	1.38540E+000	-9.58548E-005	12	...........	-327.56
	1464	732.5	1.39174E+000	3.37689E-001	0.00000E+000	1.39340E+000	-9.37881E-005	12	...........	-327.56
	1472	736.5	1.39966E+000	3.55568E-001	0.00000E+000	1.40140E+000	-9.91881E-005	12	...........	-327.56
	1480	740.5	1.40766E+000	3.73769E-001	0.00000E+000	1.40940E+000	-9.84881E-005	12	...........	-327.56
	1488	744.5	1.41569E+000	3.91064E-001	0.00000E+000	1.41740E+000	-9.89881E-005	12	...........	-327.56
	1496	748.5	1.42358E+000	4.11017E-001	0.00000E+000	1.42540E+000	-9.81548E-005	12	...........	-327.56
	1504	752.5	1.43161E+000	4.31025E-001	0.00000E+000	1.43340E+000	-9.88881E-005	12	...........	-327.56
	1512	756.5	1.43961E+000	4.49878E-001	0.00000E+000	1.44140E+000	-1.01688E-004	12	...........	-327.56
	1520	760.5	1.44751E+000	4.67993E-001	0.00000E+000	1.44940E+000	-1.01055E-004	12	...........	-327.56
	1528	764.5	1.45552E+000	4.85791E-001	0.00000E+000	1.45740E+000	-1.00055E-004	12	...........	-327.56
	1536	768.5	1.46356E+000	5.04583E-001	0.00000E+000	1.46540E+000	-1.02855E-004	12	...........	-327.56
	1544	772.5	1.47152E+000	5.24215E-001	0.00000E+000	1.47340E+000	-1.00055E-004	12	...........	-327.56
	1552	776.5	1.47946E+000	5.44610E-001	0.00000E+000	1.48140E+000	-9.48548E-005	12	...........	-327.56
	1560	780.5	1.48747E+000	5.64520E-001	0.00000E+000	1.48940E+000	-9.99214E-005	12	...........	-327.56
	1568	784.5	1.49546E+000	5.85111E-001	0.00000E+000	1.49740E+000	-9.82214E-005	12	...........	-327.56
	1576	788.5	1.50341E+000	6.05316E-001	0.00000E+000	1.50540E+000	-1.00121E-004	12	...........	-327.56
	1584	792.5	1.51142E+000	6.24087E-001	0.00000E+000	1.51340E+000	-9.86214E-005	12	...........	-327.56
	1592	796.5	1.51941E+000	6.43127E-001	0.00000E+000	1.52140E+000	-9.79881E-005	12	...........	-327.56
	1600	800.5	1.52735E+000	6.63668E-001	0.00000E+000	1.52940E+000	-9.98214E-005	12	...........	-327.56
	1608	804.5	1.53537E+000	6.82656E-001	0.00000E+000	1.53740E+000	-1.00655E-004	12	...........	-327.56
	1616	808.5	1.54332E+000	7.03569E-001	0.00000E+000	1.54540E+000	-9.82548E-005	12	...........	-327.56
	1624	812.5	1.55125E+000	7.22360E-001	0.00000E+000	1.55340E+000	-9.69548E-005	12	...........	-327.56
	1632	816.5	1.55924E+000	7.46055E-001	0.00000E+000	1.56140E+000	-9.90548E-005	12	...........	-327.56
	1640	820.5	1.56726E+000	7.67551E-001	0.00000E+000	1.56940E+000	-9.96214E-005	12	...........	-327.56
	1648	824.5	1.57517E+000	7.87403E-001	0.00000E+000	1.57740E+000	-1.04188E-004	12	...........	-327.56
	1656	828.5	1.58318E+000	8.07830E-001	0.00000E+000	1.58540E+000	-1.01055E-004	12	...........	-327.56
	1664	832.5	1.59122E+000	8.25183E-001	0.00000E+000	1.59340E+000	-9.84548E-005	12	...........	-327.56
	1672	836.5	1.59916E+000	8.45455E-001	0.00000E+000	1.60140E+000	-9.81548E-005	12	...........	-327.56
	1680	840.5	1.60710E+000	8.68034E-001	0.00000E+000	1.60940E+000	-9.47214E-005	12	...........	-327.56
	1688	844.5	1.61516E+000	8.89007E-001	0.00000E+000	1.61740E+000	-9.66214E-005	12	...........	-327.56
	1696	848.5	1.62313E+000	9.09037E-001	0.00000E+000	1.62540E+000	-9.81548E-005	12	...........	-327.56
	1704	852.5	1.63108E+000	9.21956E-001	0.00000E+000	1.63340E+000	-9.57214E-005	12	...........	-327.56
	1712	856.5	1.63910E+000	9.39100E-001	0.00000E+000	1.64140E+000	-9.75881E-005	12	...........	-327.56
	1720	860.5	1.64708E+000	9.62316E-001	0.00000E+000	1.64940E+000	-9.68881E-005	12	...........	-327.56
	1728	864.5	1.65500E+000	9.84203E-001	0.00000E+000	1.65740E+000	-9.64548E-005	12	...........	-327.56
	1736	868.5	1.66301E+000	1.00676E+000	0.00000E+000	1.66540E+000	-9.57881E-005	12	...........	-327.56
	1744	872.5	1.67104E+000	1.02662E+000	0.00000E+000	1.67340E+000	-9.35881E-005	12	...........	-327.56
	1752	876.5	1.67895E+000	1.04612E+000	0.00000E+000	1.68140E+000	-9.70214E-005	12	...........	-327.56
	1760	880.5	1.68696E+000	1.06701E+000	0.00000E+000	1.68940E+000	-9.84881E-005	12	...........	-327.56
	1768	884.5	1.69497E+000	1.09011E+000	0.00000E+000	1.69740E+000	-9.72548E-005	12	...........	-327.56
	1776	888.5	1.69297E+000	1.08245E+000	0.00000E+000	1.69540E+000	-9.40548E-005	12	...........	-327.56
	1784	892.5	1.68496E+000	1.06284E+000	0.00000E+000	1.68740E+000	-1.00021E-004	12	...........	-327.56
	1792	896.5	1.67696E+000	1.04277E+000	0.00000E+000	1.67940E+000	-9.59548E-005	12	...........	-327.56
	1800	900.5	1.66904E+000	1.02611E+000	0.00000E+000	1.67140E+000	-9.60548E-005	12	...........	-327.56
	1808	904.5	1.66101E+000	1.00614E+000	0.00000E+000	1.66340E+000	-9.55881E-005	12	...........	-327.56
	1816	908.5	1.65296E+000	9.91186E-001	0.00000E+000	1.65540E+000	-9.63214E-005	12	...........	-327.56
	1824	912.5	1.64506E+000	9.71590E-001	0.00000E+000	1.64740E+000	-9.56214E-005	12	...........	-327.56
	1832	916.5	1.63708E+000	9.52723E-001	0.00000E+000	1.63940E+000	-9.59548E-005	12	...........	-327.56
	1840	920.5	1.62906E+000	9.31872E-001	0.00000E+000	1.63140E+000	-9.60548E-005	12	...........	-327.56
	1848	924.5	1.62115E+000	9.12761E-001	0.00000E+000	1.62340E+000	-9.80214E-005	12	...........	-327.56
	1856	928.5	1.61313E+000	8.93357E-001	0.00000E+000	1.61540E+000	-9.27214E-005	12	...........	-327.56
	1864	932.5	1.60513E+000	8.76572E-001	0.00000E+000	1.60740E+000	-9.80881E-005	12	...........	-327.56
	1872	936.5	1.59719E+000	8.52975E-001	0.00000E+000	1.59940E+000	-9.52548E-005	12	...........	-327.56
	1880	940.5	1.58920E+000	8.38782E-001	0.00000E+000	1.59140E+000	-9.54881E-005	12	...........	-327.56
	1888	944.5	1.58118E+000	8.13565E-001	0.00000E+000	1.58340E+000	-9.56548E-005	12	...........	-327.56
	1896	948.5	1.57327E+000	7.99179E-001	0.00000E+000	1.57540E+000	-9.69548E-005	12	...........	-327.56
	1904	952.5	1.56527E+000	7.81636E-001	0.00000E+000	1.56740E+000	-9.55548E-005	12	...........	-327.56
	1912	956.5	1.55723E+000	7.63183E-001	0.00000E+000	1.55940E+000	-9.81881E-005	12	...........	-327.56
	1920	960.5	1.54920E+000	7.45852E-001	0.00000E+000	1.55140E+000	-9.74214E-005	12	...........	-327.56
	1928	964.5	1.54132E+000	7.25463E-001	0.00000E+000	1.54340E+000	-9.45881E-005	12	...........	-327.56
	1936	968.5	1.53334E+000	7.07824E-001	0.00000E+000	1.53540E+000	-9.12214E-005	12	...........	-327.56
	1944	972.5	1.52534E+000	6.88705E-001	0.00000E+000	1.52740E+000	-9.59881E-005	12	...........	-327.56
	1952	976.5	1.51742E+000	6.70084E-001	0.00000E+000	1.51940E+000	-9.09881E-005	12	...........	-327.56
	1960	980.5	1.50939E+000	6.54648E-001	0.00000E+000	1.51140E+000	-9.30881E-005	12	...........	-327.56
	1968	984.5	1.50138E+000	6.37334E-001	0.00000E+000	1.50340E+000	-9.39214E-005	12	...........	-327.56
	1976	988.5	1.49347E+000	6.21818E-001	0.00000E+000	1.49540E+000	-9.78214E-005	12	...........	-327.56
	1984	992.5	1.48545E+000	6.05126E-001	0.00000E+000	1.48740E+000	-9.01548E-005	12	...........	-327.56
	1992	996.5	1.47745E+000	5.86366E-001	0.00000E+000	1.47940E+000	-9.78214E-005	12	...........	-327.56
	2000	1000.5	1.46950E+000	5.66312E-001	0.00000E+000	1.47140E+000	-9.23881E-005	12	...........	-327.56
	2008	1004.5	1.46153E+000	5.49536E-001	0.00000E+000	1.46340E+000	-9.32881E-005	12	...........	-327.56
	2016	1008.5	1.45350E+000	5.32335E-001	0.00000E+000	1.45540E+000	-9.61214E-005	12	...........	-327.56
	2024	1012.5	1.44554E+000	5.16549E-001	0.00000E+000	1.44740E+000	-9.77548E-005	12	...........	-327.56
	2032	1016.5	1.43757E+000	5.00065E-001	0.00000E+000	1.43940E+000	-9.28214E-005	12	...........	-327.56
	2040	1020.5	1.42956E+000	4.85066E-001	0.00000E+000	1.43140E+000	-9.32548E-005	12	...........	-327.56
	2048	1024.5	1.42153E+000	4.68805E-001	0.00000E+000	1.42340E+000	-9.77214E-005	12	...........	-327.56
	2056	1028.5	1.41365E+000	4.52084E-001	0.00000E+000	1.41540E+000	-9.98548E-005	12	...........	-327.56
	2064	1032.5	1.40562E+000	4.35941E-001	0.00000E+000	1.40740E+000	-9.50548E-005	12	...........	-327.56
	2072	1036.5	1.39760E+000	4.17594E-001	0.00000E+000	1.39940E+000	-9.72548E-005	12	...........	-327.56
	2080	1040.5	1.38969E+000	3.99682E-001	0.00000E+000	1.39140E+000	-9.60214E-005	12	...........	-327.56
	2088	1044.5	1.38167E+000	3.83085E-001	0.00000E+000	1.38340E+000	-9.94881E-005	12	...........	-327.56
	2096	1048.5	1.37369E+000	3.66642E-001	0.00000E+000	1.37540E+000	-9.63214E-005	12	...........	-327.56
	2104	1052.5	1.36574E+000	3.50258E-001	0.00000E+000	1.36740E+000	-9.56881E-005	12	...........	-327.56
	2112	1056.5	1.35774E+000	3.34177E-001	0.00000E+000	1.35940E+000	-8.98548E-005	12	...........	-327.56
	2120	1060.5	1.34972E+000	3.18269E-001	0.00000E+000	1.35140E+000	-9.53548E-005	12	...........	-327.56
	2128	1064.5	1.34178E+000	3.02139E-001	0.00000E+000	1.34340E+000	-9.28548E-005	12	...........	-327.56
	2136	1068.5	1.33381E+000	2.86410E-001	0.00000E+000	1.33540E+000	-9.65548E-005	12	...........	-327.56
	2144	1072.5	1.32582E+000	2.71776E-001	0.00000E+000	1.32740E+000	-9.24214E-005	12	...........	-327.56
	2152	1076.5	1.31785E+000	2.58559E-001	0.00000E+000	1.31940E+000	-9.41214E-005	12	...........	-327.56
	2160	1080.5	1.30987E+000	2.43494E-001	0.00000E+000	1.31140E+000	-9.48548E-005	12	...........	-327.56
	2168	1084.5	1.30160E+000	2.29449E-001	0.00000E+000	1.30340E+000	-9.20548E-005	11	...........	-327.56
	2176	1088.5	1.29358E+000	2.14945E-001	0.00000E+000	1.29540E+000	-9.30548E-005	11	...........	-327.56
	2184	1092.5	1.28573E+000	2.01082E-001	0.00000E+000	1.28740E+000	-9.13214E-005	11	...........	-327.56
	2192	1096.5	1.27773E+000	1.87411E-001	0.00000E+000	1.27940E+000	-9.25214E-005	11	...........	-327.56
	2200	1100.5	1.26971E+000	1.74373E-001	0.00000E+000	1.27140E+000	-9.23881E-005	11	...........	-327.56
	2208	1104.5	1.26180E+000	1.61624E-001	0.00000E+000	1.26340E+000	-9.18214E-005	11	...........	-327.56
	2216	1108.5	1.25379E+000	1.49068E-001	0.00000E+000	1.25540E+000	-8.77548E-005	11	...........	-327.56
	2224	1112.5	1.24580E+000	1.37448E-001	0.00000E+000	1.24740E+000	-9.24548E-005	11	...........	-327.56
	2232	1116.5	1.23785E+000	1.26219E-001	0.00000E+000	1.23940E+000	-8.81214E-005	11	...........	-327.56
	2240	1120.5	1.22986E+000	1.15722E-001	0.00000E+000	1.23140E+000	-9.49881E-005	11	...........	-327.56
	2248	1124.5	1.22186E+000	1.06074E-001	0.00000E+000	1.22340E+000	-9.22548E-005	11	...........	-327.56
	2256	1128.5	1.21392E+000	9.72496E-002	0.00000E+000	1.21540E+000	-9.26214E-005	11	...........	-327.56
	2264	1132.5	1.20592E+000	8.91966E-002	0.00000E+000	1.20740E+000	-8.90881E-005	11	...........	-327.56
	2272	1136.5	1.19790E+000	8.17715E-002	0.00000E+000	1.19940E+000	-9.46214E-005	11	...........	-327.56
	2280	1140.5	1.18997E+000	7.49555E-002	0.00000E+000	1.19140E+000	-9.25548E-005	11	...........	-327.56
	2288	1144.5	1.18199E+000	6.86625E-002	0.00000E+000	1.18340E+000	-9.27881E-005	11	...........	-327.56
	2296	1148.5	1.17396E+000	6.27899E-002	0.00000E+000	1.17540E+000	-9.43548E-005	11	...........	-327.56
	2304	1152.5	1.16593E+000	5.73896E-002	0.00000E+000	1.16740E+000	-9.85881E-005	11	...........	-327.56
	2312	1156.5	1.15804E+000	5.23996E-002	0.00000E+000	1.15940E+000	-9.26214E-005	11	...........	-327.56
	2320	1160.5	1.15001E+000	4.77994E-002	0.00000E+000	1.15140E+000	-9.33881E-005	11	...........	-327.56
	2328	1164.5	1.14199E+000	4.34771E-002	0.00000E+000	1.14340E+000	-9.41214E-005	11	...........	-327.56
	2336	1168.5	1.13407E+000	3.93712E-002	0.00000E+000	1.13540E+000	-9.53881E-005	11	...........	-327.56
	2344	1172.5	1.12611E+000	3.57454E-002	0.00000E+000	1.12740E+000	-9.29881E-005	11	...........	-327.56
	2352	1176.5	1.11811E+000	3.25708E-002	0.00000E+000	1.11940E+000	-9.32881E-005	11	...........	-327.56
	2360	1180.5	1.11017E+000	2.97307E-002	0.00000E+000	1.11140E+000	-9.12548E-005	11	...........	-327.56
	2368	1184.5	1.10215E+000	2.71929E-002	0.00000E+000	1.10340E+000	-9.35548E-005	11	...........	-327.56
	2376	1188.5	1.09413E+000	2.49700E-002	0.00000E+000	1.09540E+000	-9.01548E-005	11	...........	-327.56
	2384	1192.5	1.08591E+000	2.31225E-002	0.00000E+000	1.08740E+000	-9.11548E-005	10	...........	-327.56
	2392	1196.5	1.07791E+000	2.16044E-002	0.00000E+000	1.07940E+000	-9.17881E-005	10	...........	-327.56
	2400	1200.5	1.06990E+000	2.04115E-002	0.00000E+000	1.07140E+000	-8.89548E-005	10	...........	-327.56
	2408	1204.5	1.06199E+000	1.92238E-002	0.00000E+000	1.06340E+000	-9.10214E-005	10	...........	-327.56
	2416	1208.5	1.05401E+000	1.82914E-002	0.00000E+000	1.05540E+000	-9.38881E-005	10	...........	-327.56
	2424	1212.5	1.04597E+000	1.75784E-002	0.00000E+000	1.04740E+000	-9.23881E-005	10	...........	-327.56
	2432	1216.5	1.03797E+000	1.69793E-002	0.00000E+000	1.03940E+000	-9.05881E-005	10	...........	-327.56
	2440	1220.5	1.03004E+000	1.64305E-002	0.00000E+000	1.03140E+000	-8.73881E-005	10	...........	-327.56
	2448	1224.5	1.02205E+000	1.59199E-002	0.00000E+000	1.02340E+000	-8.96548E-005	10	...........	-327.56
	2456	1228.5	1.01403E+000	1.54120E-002	0.00000E+000	1.01540E+000	-9.02881E-005	10	...........	-327.56
	2464	1232.5	1.00612E+000	1.49312E-002	0.00000E+000	1.00740E+000	-9.18548E-005	10	...........	-327.56
	2472	1236.5	9.98060E-001	1.45310E-002	0.00000E+000	9.99400E-001	-9.07881E-005	10	...........	-327.56
	2480	1240.5	9.90074E-001	1.42793E-002	0.00000E+000	9.91400E-001	-9.06214E-005	10	...........	-327.56
	2488	1244.5	9.82138E-001	1.40770E-002	0.00000E+000	9.83400E-001	-8.99881E-005	10	...........	-327.56
	2496	1248.5	9.74135E-001	1.39024E-002	0.00000E+000	9.75400E-001	-9.02881E-005	10	...........	-327.56
	2504	1252.5	9.66103E-001	1.37947E-002	0.00000E+000	9.67400E-001	-9.30548E-005	10	...........	-327.56
	2512	1256.5	9.58176E-001	1.37019E-002	0.00000E+000	9.59400E-001	-9.26881E-005	10	...........	-327.56
	2520	1260.5	9.50170E-001	1.36264E-002	0.00000E+000	9.51400E-001	-8.80548E-005	10	...........	-327.56
	2528	1264.5	9.42122E-001	1.35474E-002	0.00000E+000	9.43400E-001	-9.13548E-005	10	...........	-327.56
	2536	1268.5	9.34171E-001	1.34587E-002	0.00000E+000	9.35400E-001	-9.01548E-005	10	...........	-327.56
	2544	1272.5	9.26194E-001	1.33308E-002	0.00000E+000	9.27400E-001	-9.04548E-005	10	...........	-327.56
	2552	1276.5	9.18213E-001	1.32556E-002	0.00000E+000	9.19400E-001	-9.30548E-005	10	...........	-327.56
	2560	1280.5	9.10197E-001	1.31891E-002	0.00000E+000	9.11400E-001	-9.30214E-005	10	...........	-327.56
	2568	1284.5	9.02252E-001	1.31329E-002	0.00000E+000	9.03400E-001	-8.87881E-005	10	...........	-327.56
	2576	1288.5	8.94252E-001	1.30602E-002	0.00000E+000	8.95400E-001	-8.93881E-005	10	...........	-327.56
	2584	1292.5	8.86261E-001	1.29671E-002	0.00000E+000	8.87400E-001	-9.30548E-005	10	...........	-327.56
	2592	1296.5	8.78279E-001	1.29214E-002	0.00000E+000	8.79400E-001	-8.98548E-005	10	...........	-327.56
	2600	1300.5	8.70278E-001	1.28687E-002	0.00000E+000	8.71400E-001	-9.06548E-005	10	...........	-327.56
	2608	1304.5	8.62282E-001	1.28111E-002	0.00000E+000	8.63400E-001	-9.18214E-005	10	...........	-327.56
	2616	1308.5	8.54302E-001	1.28185E-002	0.00000E+000	8.55400E-001	-8.74548E-005	10	...........	-327.56
	2624	1312.5	8.46309E-001	1.28543E-002	0.00000E+000	8.47400E-001	-9.33548E-005	10	...........	-327.56
	2632	1316.5	8.38282E-001	1.28772E-002	0.00000E+000	8.39400E-001	-8.90881E-005	10	...........	-327.56
	2640	1320.5	8.30292E-001	1.28935E-002	0.00000E+000	8.31400E-001	-9.04214E-005	10	...........	-327.56
	2648	1324.5	8.22301E-001	1.29109E-002	0.00000E+000	8.23400E-001	-9.14548E-005	10	...........	-327.56
	2656	1328.5	8.14323E-001	1.29088E-002	0.00000E+000	8.15400E-001	-9.34881E-005	10	...........	-327.56
	2664	1332.5	8.06347E-001	1.29517E-002	0.00000E+000	8.07400E-001	-8.90881E-005	10	...........	-327.56
	2672	1336.5	7.98351E-001	1.29385E-002	0.00000E+000	7.99400E-001	-9.17881E-005	10	...........	-327.56
	2680	1340.5	7.90326E-001	1.28828E-002	0.00000E+000	7.91400E-001	-8.79881E-005	10	...........	-327.56
	2688	1344.5	7.82311E-001	1.28325E-002	0.00000E+000	7.83400E-001	-9.32881E-005	10	...........	-327.56
	2696	1348.5	7.74345E-001	1.27832E-002	0.00000E+000	7.75400E-001	-8.95548E-005	10	...........	-327.56
	2704	1352.5	7.66341E-001	1.27129E-002	0.00000E+000	7.67400E-001	-9.29548E-005	10	...........	-327.56
	2712	1356.5	7.58333E-001	1.26352E-002	0.00000E+000	7.59400E-001	-8.80881E-005	10	...........	-327.56
	2720	1360.5	7.50386E-001	1.25371E-002	0.00000E+000	7.51400E-001	-9.03548E-005	10	...........	-327.56
	2728	1364.5	7.42350E-001	1.24253E-002	0.00000E+000	7.43400E-001	-8.92881E-005	10	...........	-327.56
	2736	1368.5	7.34344E-001	1.23102E-002	0.00000E+000	7.35400E-001	-9.43548E-005	10	...........	-327.56
	2744	1372.5	7.26420E-001	1.22099E-002	0.00000E+000	7.27400E-001	-9.07214E-005	10	...........	-327.56
	2752	1376.5	7.18389E-001	1.21435E-002	0.00000E+000	7.19400E-001	-9.21548E-005	10	...........	-327.56
	2760	1380.5	7.10385E-001	1.20826E-002	0.00000E+000	7.11400E-001	-9.08214E-005	10	...........	-327.56
	2768	1384.5	7.02483E-001	1.20258E-002	0.00000E+000	7.03400E-001	-9.47548E-005	10	...........	-327.56
	2776	1388.5	6.94482E-001	1.19891E-002	0.00000E+000	6.95400E-001	-9.04881E-005	10	...........	-327.56
	2784	1392.5	6.86412E-001	1.19407E-002	0.00000E+000	6.87400E-001	-9.19214E-005	10	...........	-327.56
	2792	1396.5	6.78469E-001	1.18842E-002	0.00000E+000	6.79400E-001	-9.09548E-005	10	...........	-327.56
	2800	1400.5	6.70494E-001	1.18294E-002	0.00000E+000	6.71400E-001	-9.22881E-005	10	...........	-327.56
	2808	1404.5	6.62467E-001	1.17754E-002	0.00000E+000	6.63400E-001	-9.19881E-005	10	...........	-327.56
	2816	1408.5	6.54387E-001	1.17118E-002	0.00000E+000	6.55400E-001	-9.37214E-005	10	...........	-327.56
	2824	1412.5	6.46536E-001	1.15379E-002	0.00000E+000	6.47400E-001	-9.42214E-005	10	...........	-327.56
	2832	1416.5	6.38507E-001	1.15968E-002	0.00000E+000	6.39400E-001	-9.25214E-005	10	...........	-327.56
	2840	1420.5	6.30443E-001	1.14983E-002	0.00000E+000	6.31400E-001	-9.15548E-005	10	...........	-327.56
	2848	1424.5	6.22564E-001	1.14479E-002	0.00000E+000	6.23400E-001	-9.30548E-005	10	...........	-327.56
	2856	1428.5	6.14529E-001	1.13532E-002	0.00000E+000	6.15400E-001	-8.90214E-005	10	...........	-327.56
	2864	1432.5	6.06524E-001	1.12695E-002	0.00000E+000	6.07400E-001	-9.39881E-005	10	...........	-327.56
	2872	1436.5	5.98614E-001	1.11829E-002	0.00000E+000	5.99400E-001	-8.83548E-005	10	...........	-327.56
	2880	1440.5	5.90589E-001	1.11098E-002	0.00000E+000	5.91400E-001	-9.04548E-005	10	...........	-327.56
	2888	1444.5	5.82540E-001	1.10529E-002	0.00000E+000	5.83400E-001	-9.10548E-005	10	...........	-327.56
	2896	1448.5	5.74606E-001	1.09784E-002	0.00000E+000	5.75400E-001	-9.05548E-005	10	...........	-327.56
	2904	1452.5	5.66603E-001	1.08832E-002	0.00000E+000	5.67400E-001	-9.22548E-005	10	...........	-327.56
	2912	1456.5	5.58598E-001	1.07900E-002	0.00000E+000	5.59400E-001	-9.37881E-005	10	...........	-327.56
	2920	1460.5	5.50573E-001	1.06842E-002	0.00000E+000	5.51400E-001	-9.02214E-005	10	...........	-327.56
	2928	1464.5	5.42646E-001	1.05665E-002	0.00000E+000	5.43400E-001	-9.28548E-005	10	...........	-327.56
	2936	1468.5	5.34600E-001	1.04493E-002	0.00000E+000	5.35400E-001	-9.13881E-005	10	...........	-327.56
	2944	1472.5	5.26559E-001	1.03262E-002	0.00000E+000	5.27400E-001	-9.25881E-005	10	...........	-327.56
	2952	1476.5	5.18660E-001	1.02105E-002	0.00000E+000	5.19400E-001	-8.97881E-005	10	...........	-327.56
[...]
	9192	4596.5	7.19984E-001	1.34455E-002	0.00000E+000	7.21000E-001	-8.99214E-005	10	...........	-327.56
	9197	4599	7.25033E-001	1.31788E-002	0.00000E+000	7.26000E-001	-9.06214E-005	10	...........	-327.56
	9202	4601.5	7.29911E-001	1.32104E-002	0.00000E+000	7.31000E-001	-8.88881E-005	10	...........	-327.56
	9207	4604	7.34960E-001	1.30455E-002	0.00000E+000	7.36000E-001	-9.12548E-005	10	...........	-327.56
	9212	4606.5	7.39950E-001	1.28897E-002	0.00000E+000	7.41000E-001	-8.79881E-005	10	...........	-327.56
	9217	4609	7.45010E-001	1.26791E-002	0.00000E+000	7.46000E-001	-9.20214E-005	10	...........	-327.56
	9222	4611.5	7.50005E-001	1.24534E-002	0.00000E+000	7.51000E-001	-9.21881E-005	10	...........	-327.56
	9227	4614	7.55003E-001	1.23312E-002	0.00000E+000	7.56000E-001	-8.78214E-005	10	...........	-327.56
	9232	4616.5	7.59943E-001	1.22737E-002	0.00000E+000	7.61000E-001	-9.13548E-005	10	...........	-327.56
	9237	4619	7.64971E-001	1.21676E-002	0.00000E+000	7.66000E-001	-9.00214E-005	10	...........	-327.56
	9242	4621.5	7.69972E-001	1.21455E-002	0.00000E+000	7.71000E-001	-9.05881E-005	10	...........	-327.56
	9247	4624	7.74998E-001	1.20420E-002	0.00000E+000	7.76000E-001	-8.89881E-005	10	...........	-327.56
	9252	4626.5	7.79972E-001	1.18668E-002	0.00000E+000	7.81000E-001	-9.42881E-005	10	...........	-327.56
	9257	4629	7.84933E-001	1.17317E-002	0.00000E+000	7.86000E-001	-8.63881E-005	10	...........	-327.56
	9262	4631.5	7.89925E-001	1.17129E-002	0.00000E+000	7.91000E-001	-8.97214E-005	10	...........	-327.56
	9267	4634	7.94984E-001	1.15022E-002	0.00000E+000	7.96000E-001	-9.12214E-005	10	...........	-327.56
	9272	4636.5	7.99972E-001	1.15359E-002	0.00000E+000	8.01000E-001	-9.00548E-005	10	...........	-327.56
	9277	4639	8.04990E-001	1.13635E-002	0.00000E+000	8.06000E-001	-9.21881E-005	10	...........	-327.56
	9282	4641.5	8.09930E-001	1.13410E-002	0.00000E+000	8.11000E-001	-9.16214E-005	10	...........	-327.56
	9287	4644	8.14943E-001	1.12168E-002	0.00000E+000	8.16000E-001	-9.37548E-005	10	...........	-327.56
	9292	4646.5	8.19911E-001	1.10923E-002	0.00000E+000	8.21000E-001	-9.13214E-005	10	...........	-327.56
	9297	4649	8.24924E-001	1.10661E-002	0.00000E+000	8.26000E-001	-9.38548E-005	10	...........	-327.56
	9302	4651.5	8.29896E-001	1.10471E-002	0.00000E+000	8.31000E-001	-9.14548E-005	10	...........	-327.56
	9307	4654	8.34850E-001	1.09454E-002	0.00000E+000	8.36000E-001	-9.03548E-005	10	...........	-327.56
	9312	4656.5	8.39919E-001	1.08559E-002	0.00000E+000	8.41000E-001	-9.24548E-005	10	...........	-327.56
	9317	4659	8.44896E-001	1.08180E-002	0.00000E+000	8.46000E-001	-9.16214E-005	10	...........	-327.56
	9322	4661.5	8.49922E-001	1.07862E-002	0.00000E+000	8.51000E-001	-9.19214E-005	10	...........	-327.56
	9327	4664	8.54947E-001	1.07577E-002	0.00000E+000	8.56000E-001	-8.98548E-005	10	...........	-327.56
	9332	4666.5	8.59848E-001	1.07117E-002	0.00000E+000	8.61000E-001	-9.16881E-005	10	...........	-327.56
	9337	4669	8.64848E-001	1.06564E-002	0.00000E+000	8.66000E-001	-9.18548E-005	10	...........	-327.56
	9342	4671.5	8.69862E-001	1.05946E-002	0.00000E+000	8.71000E-001	-9.11881E-005	10	...........	-327.56
	9347	4674	8.74901E-001	1.06011E-002	0.00000E+000	8.76000E-001	-9.19214E-005	10	...........	-327.56
	9352	4676.5	8.79920E-001	1.06039E-002	0.00000E+000	8.81000E-001	-8.92881E-005	10	...........	-327.56
	9357	4679	8.84770E-001	1.06163E-002	0.00000E+000	8.86000E-001	-9.06548E-005	10	...........	-327.56
	9362	4681.5	8.89836E-001	1.06280E-002	0.00000E+000	8.91000E-001	-8.93548E-005	10	...........	-327.56
	9367	4684	8.94841E-001	1.06302E-002	0.00000E+000	8.96000E-001	-9.32214E-005	10	...........	-327.56
	9372	4686.5	8.99892E-001	1.06077E-002	0.00000E+000	9.01000E-001	-8.91548E-005	10	...........	-327.56
	9377	4689	9.04883E-001	1.06070E-002	0.00000E+000	9.06000E-001	-9.08548E-005	10	...........	-327.56
	9382	4691.5	9.09802E-001	1.06030E-002	0.00000E+000	9.11000E-001	-9.44881E-005	10	...........	-327.56
	9387	4694	9.14816E-001	1.05756E-002	0.00000E+000	9.16000E-001	-8.97214E-005	10	...........	-327.56
	9392	4696.5	9.19881E-001	1.05900E-002	0.00000E+000	9.21000E-001	-9.11548E-005	10	...........	-327.56
	9397	4699	9.24791E-001	1.05829E-002	0.00000E+000	9.26000E-001	-9.04881E-005	10	...........	-327.56
	9402	4701.5	9.29833E-001	1.06170E-002	0.00000E+000	9.31000E-001	-9.21548E-005	10	...........	-327.56
	9407	4704	9.34738E-001	1.06554E-002	0.00000E+000	9.36000E-001	-9.06214E-005	10	...........	-327.56
	9412	4706.5	9.39749E-001	1.06925E-002	0.00000E+000	9.41000E-001	-9.19881E-005	10	...........	-327.56
	9417	4709	9.44771E-001	1.07524E-002	0.00000E+000	9.46000E-001	-8.82548E-005	10	...........	-327.56
	9422	4711.5	9.49813E-001	1.08526E-002	0.00000E+000	9.51000E-001	-9.27548E-005	10	...........	-327.56
	9427	4714	9.54797E-001	1.08701E-002	0.00000E+000	9.56000E-001	-9.16214E-005	10	...........	-327.56
	9432	4716.5	9.59809E-001	1.09833E-002	0.00000E+000	9.61000E-001	-8.91214E-005	10	...........	-327.56
	9437	4719	9.64741E-001	1.10763E-002	0.00000E+000	9.66000E-001	-9.30214E-005	10	...........	-327.56
	9442	4721.5	9.69765E-001	1.11349E-002	0.00000E+000	9.71000E-001	-9.00881E-005	10	...........	-327.56
	9447	4724	9.74758E-001	1.11873E-002	0.00000E+000	9.76000E-001	-8.93881E-005	10	...........	-327.56
	9452	4726.5	9.79791E-001	1.13671E-002	0.00000E+000	9.81000E-001	-9.13214E-005	10	...........	-327.56
	9457	4729	9.84763E-001	1.14349E-002	0.00000E+000	9.86000E-001	-9.16548E-005	10	...........	-327.56
	9462	4731.5	9.89711E-001	1.17124E-002	0.00000E+000	9.91000E-001	-9.60881E-005	10	...........	-327.56
	9467	4734	9.94716E-001	1.18995E-002	0.00000E+000	9.96000E-001	-8.93881E-005	10	...........	-327.56
	9472	4736.5	9.99763E-001	1.21838E-002	0.00000E+000	1.00100E+000	-8.98548E-005	10	...........	-327.56
	9477	4739	1.00474E+000	1.22579E-002	0.00000E+000	1.00600E+000	-9.10881E-005	10	...........	-327.56
	9482	4741.5	1.00977E+000	1.26079E-002	0.00000E+000	1.01100E+000	-9.16214E-005	10	...........	-327.56
	9487	4744	1.01468E+000	1.28783E-002	0.00000E+000	1.01600E+000	-8.87881E-005	10	...........	-327.56
	9492	4746.5	1.01968E+000	1.32050E-002	0.00000E+000	1.02100E+000	-9.40881E-005	10	...........	-327.56
	9497	4749	1.02468E+000	1.37653E-002	0.00000E+000	1.02600E+000	-8.62548E-005	10	...........	-327.56
	9502	4751.5	1.02970E+000	1.42714E-002	0.00000E+000	1.03100E+000	-9.12214E-005	10	...........	-327.56
	9507	4754	1.03467E+000	1.49540E-002	0.00000E+000	1.03600E+000	-8.87548E-005	10	...........	-327.56
	9512	4756.5	1.03959E+000	1.53024E-002	0.00000E+000	1.04100E+000	-8.83214E-005	10	...........	-327.56
	9517	4759	1.04466E+000	1.61972E-002	0.00000E+000	1.04600E+000	-9.18214E-005	10	...........	-327.56
	9522	4761.5	1.04958E+000	1.69725E-002	0.00000E+000	1.05100E+000	-9.17548E-005	10	...........	-327.56
	9527	4764	1.05464E+000	1.80841E-002	0.00000E+000	1.05600E+000	-9.03214E-005	10	...........	-327.56
	9532	4766.5	1.05963E+000	1.90168E-002	0.00000E+000	1.06100E+000	-9.09881E-005	10	...........	-327.56
	9537	4769	1.06453E+000	2.00010E-002	0.00000E+000	1.06600E+000	-9.01548E-005	10	...........	-327.56
	9542	4771.5	1.06952E+000	2.14905E-002	0.00000E+000	1.07100E+000	-8.75214E-005	10	...........	-327.56
	9547	4774	1.07453E+000	2.28249E-002	0.00000E+000	1.07600E+000	-8.92548E-005	10	...........	-327.56
	9552	4776.5	1.07950E+000	2.43488E-002	0.00000E+000	1.08100E+000	-8.64548E-005	10	...........	-327.56
	9557	4779	1.08451E+000	2.60997E-002	0.00000E+000	1.08600E+000	-8.70881E-005	10	...........	-327.56
	9562	4781.5	1.08967E+000	2.80895E-002	0.00000E+000	1.09100E+000	-9.24548E-005	11	...........	-327.56
	9567	4784	1.09473E+000	3.00746E-002	0.00000E+000	1.09600E+000	-8.79881E-005	11	...........	-327.56
	9572	4786.5	1.09972E+000	3.21748E-002	0.00000E+000	1.10100E+000	-9.36548E-005	11	...........	-327.56
	9577	4789	1.10475E+000	3.43991E-002	0.00000E+000	1.10600E+000	-9.24881E-005	11	...........	-327.56
	9582	4791.5	1.10976E+000	3.64755E-002	0.00000E+000	1.11100E+000	-9.28548E-005	11	...........	-327.56
	9587	4794	1.11466E+000	3.85691E-002	0.00000E+000	1.11600E+000	-9.62548E-005	11	...........	-327.56
	9592	4796.5	1.11971E+000	4.12752E-002	0.00000E+000	1.12100E+000	-9.01881E-005	11	...........	-327.56
	9597	4799	1.12472E+000	4.43448E-002	0.00000E+000	1.12600E+000	-9.41548E-005	11	...........	-327.56
	9602	4801.5	1.12966E+000	4.72117E-002	0.00000E+000	1.13100E+000	-9.24214E-005	11	...........	-327.56
	9607	4804	1.13468E+000	5.00421E-002	0.00000E+000	1.13600E+000	-9.02881E-005	11	...........	-327.56
	9612	4806.5	1.13957E+000	5.28835E-002	0.00000E+000	1.14100E+000	-9.03881E-005	11	...........	-327.56
	9617	4809	1.14459E+000	5.59113E-002	0.00000E+000	1.14600E+000	-9.32214E-005	11	...........	-327.56
	9622	4811.5	1.14960E+000	5.93731E-002	0.00000E+000	1.15100E+000	-9.14548E-005	11	...........	-327.56
	9627	4814	1.15464E+000	6.25418E-002	0.00000E+000	1.15600E+000	-8.92548E-005	11	...........	-327.56
	9632	4816.5	1.15963E+000	6.82636E-002	0.00000E+000	1.16100E+000	-9.06881E-005	11	...........	-327.56
	9637	4819	1.16463E+000	7.25803E-002	0.00000E+000	1.16600E+000	-9.17214E-005	11	...........	-327.56
	9642	4821.5	1.16955E+000	7.69595E-002	0.00000E+000	1.17100E+000	-9.17214E-005	11	...........	-327.56
	9647	4824	1.17457E+000	8.14646E-002	0.00000E+000	1.17600E+000	-9.18548E-005	11	...........	-327.56
	9652	4826.5	1.17957E+000	8.61242E-002	0.00000E+000	1.18100E+000	-9.22214E-005	11	...........	-327.56
	9657	4829	1.18458E+000	9.09283E-002	0.00000E+000	1.18600E+000	-8.88548E-005	11	...........	-327.56
	9662	4831.5	1.18956E+000	9.59053E-002	0.00000E+000	1.19100E+000	-9.22881E-005	11	...........	-327.56
	9667	4834	1.19450E+000	1.00829E-001	0.00000E+000	1.19600E+000	-9.01214E-005	11	...........	-327.56
	9672	4836.5	1.19949E+000	1.06011E-001	0.00000E+000	1.20100E+000	-8.98214E-005	11	...........	-327.56
	9677	4839	1.20451E+000	1.11557E-001	0.00000E+000	1.20600E+000	-9.40548E-005	11	...........	-327.56
	9682	4841.5	1.20952E+000	1.17439E-001	0.00000E+000	1.21100E+000	-9.19548E-005	11	...........	-327.56
	9687	4844	1.21452E+000	1.23299E-001	0.00000E+000	1.21600E+000	-9.29214E-005	11	...........	-327.56
	9692	4846.5	1.21942E+000	1.28033E-001	0.00000E+000	1.22100E+000	-8.98548E-005	11	...........	-327.56
	9697	4849	1.22444E+000	1.32010E-001	0.00000E+000	1.22600E+000	-9.11548E-005	11	...........	-327.56
	9702	4851.5	1.22945E+000	1.35983E-001	0.00000E+000	1.23100E+000	-8.73214E-005	11	...........	-327.56
	9707	4854	1.23448E+000	1.40856E-001	0.00000E+000	1.23600E+000	-9.14881E-005	11	...........	-327.56
	9712	4856.5	1.23945E+000	1.46486E-001	0.00000E+000	1.24100E+000	-8.88881E-005	11	...........	-327.56
	9717	4859	1.24437E+000	1.52718E-001	0.00000E+000	1.24600E+000	-8.95881E-005	11	...........	-327.56
	9722	4861.5	1.24943E+000	1.58803E-001	0.00000E+000	1.25100E+000	-8.96548E-005	11	...........	-327.56
	9727	4864	1.25437E+000	1.65238E-001	0.00000E+000	1.25600E+000	-9.11548E-005	11	...........	-327.56
	9732	4866.5	1.25941E+000	1.72256E-001	0.00000E+000	1.26100E+000	-8.93548E-005	11	...........	-327.56
	9737	4869	1.26439E+000	1.79601E-001	0.00000E+000	1.26600E+000	-9.23881E-005	11	...........	-327.56
	9742	4871.5	1.26930E+000	1.87580E-001	0.00000E+000	1.27100E+000	-9.32214E-005	11	...........	-327.56
	9747	4874	1.27430E+000	1.95691E-001	0.00000E+000	1.27600E+000	-8.78214E-005	11	...........	-327.56
	9752	4876.5	1.27929E+000	2.03830E-001	0.00000E+000	1.28100E+000	-8.89214E-005	11	...........	-327.56
	9757	4879	1.28429E+000	2.12422E-001	0.00000E+000	1.28600E+000	-9.00881E-005	11	...........	-327.56
	9762	4881.5	1.28932E+000	2.21468E-001	0.00000E+000	1.29100E+000	-9.03214E-005	11	...........	-327.56
	9767	4884	1.29425E+000	2.30413E-001	0.00000E+000	1.29600E+000	-9.42881E-005	11	...........	-327.56
	9772	4886.5	1.29918E+000	2.39626E-001	0.00000E+000	1.30100E+000	-8.73548E-005	11	...........	-327.56
	9777	4889	1.30421E+000	2.49063E-001	0.00000E+000	1.30600E+000	-8.82548E-005	11	...........	-327.56
	9782	4891.5	1.30920E+000	2.58668E-001	0.00000E+000	1.31100E+000	-8.99214E-005	11	...........	-327.56
	9787	4894	1.31423E+000	2.68015E-001	0.00000E+000	1.31600E+000	-8.89881E-005	11	...........	-327.56
	9792	4896.5	1.31939E+000	2.78683E-001	0.00000E+000	1.32100E+000	-9.32214E-005	12	...........	-327.56
	9797	4899	1.32440E+000	2.88909E-001	0.00000E+000	1.32600E+000	-9.28548E-005	12	...........	-327.56
	9802	4901.5	1.32943E+000	2.99672E-001	0.00000E+000	1.33100E+000	-9.26548E-005	12	...........	-327.56
	9807	4904	1.33438E+000	3.10943E-001	0.00000E+000	1.33600E+000	-9.37548E-005	12	...........	-327.56
	9812	4906.5	1.33939E+000	3.22056E-001	0.00000E+000	1.34100E+000	-9.21548E-005	12	...........	-327.56
	9817	4909	1.34430E+000	3.33068E-001	0.00000E+000	1.34600E+000	-9.11548E-005	12	...........	-327.56
	9822	4911.5	1.34931E+000	3.43360E-001	0.00000E+000	1.35100E+000	-9.42548E-005	12	...........	-327.56
	9827	4914	1.35431E+000	3.53896E-001	0.00000E+000	1.35600E+000	-9.41548E-005	12	...........	-327.56
	9832	4916.5	1.35935E+000	3.65243E-001	0.00000E+000	1.36100E+000	-9.35548E-005	12	...........	-327.56
	9837	4919	1.36434E+000	3.76555E-001	0.00000E+000	1.36600E+000	-9.15214E-005	12	...........	-327.56
	9842	4921.5	1.36934E+000	3.88237E-001	0.00000E+000	1.37100E+000	-8.97548E-005	12	...........	-327.56
	9847	4924	1.37432E+000	4.00310E-001	0.00000E+000	1.37600E+000	-9.17214E-005	12	...........	-327.56
	9852	4926.5	1.37925E+000	4.13041E-001	0.00000E+000	1.38100E+000	-9.28548E-005	12	...........	-327.56
	9857	4929	1.38427E+000	4.26082E-001	0.00000E+000	1.38600E+000	-8.74548E-005	12	...........	-327.56
	9862	4931.5	1.38928E+000	4.39425E-001	0.00000E+000	1.39100E+000	-8.93548E-005	12	...........	-327.56
	9867	4934	1.39426E+000	4.51901E-001	0.00000E+000	1.39600E+000	-9.25548E-005	12	...........	-327.56
	9872	4936.5	1.39918E+000	4.64266E-001	0.00000E+000	1.40100E+000	-9.04214E-005	12	...........	-327.56
	9877	4939	1.40421E+000	4.76828E-001	0.00000E+000	1.40600E+000	-9.28548E-005	12	...........	-327.56
	9882	4941.5	1.40920E+000	4.89366E-001	0.00000E+000	1.41100E+000	-9.52881E-005	12	...........	-327.56
	9887	4944	1.41425E+000	5.02356E-001	0.00000E+000	1.41600E+000	-8.77548E-005	12	...........	-327.56
	9892	4946.5	1.41923E+000	5.14936E-001	0.00000E+000	1.42100E+000	-9.18214E-005	12	...........	-327.56
	9897	4949	1.42411E+000	5.26940E-001	0.00000E+000	1.42600E+000	-9.27548E-005	12	...........	-327.56
	9902	4951.5	1.42915E+000	5.39419E-001	0.00000E+000	1.43100E+000	-9.14214E-005	12	...........	-327.56
	9907	4954	1.43412E+000	5.51609E-001	0.00000E+000	1.43600E+000	-8.97548E-005	12	...........	-327.56
	9912	4956.5	1.43916E+000	5.64165E-001	0.00000E+000	1.44100E+000	-9.38881E-005	12	...........	-327.56
	9917	4959	1.44415E+000	5.77353E-001	0.00000E+000	1.44600E+000	-9.21548E-005	12	...........	-327.56
	9922	4961.5	1.44905E+000	5.90326E-001	0.00000E+000	1.45100E+000	-9.17214E-005	12	...........	-327.56
	9927	4964	1.45405E+000	6.02238E-001	0.00000E+000	1.45600E+000	-9.27881E-005	12	...........	-327.56
	9932	4966.5	1.45910E+000	6.14405E-001	0.00000E+000	1.46100E+000	-8.86881E-005	12	...........	-327.56
	9937	4969	1.46410E+000	6.26808E-001	0.00000E+000	1.46600E+000	-9.04881E-005	12	...........	-327.56
	9942	4971.5	1.46908E+000	6.37801E-001	0.00000E+000	1.47100E+000	-8.91881E-005	12	...........	-327.56
	9947	4974	1.47397E+000	6.51881E-001	0.00000E+000	1.47600E+000	-9.08881E-005	12	...........	-327.56
	9952	4976.5	1.47900E+000	6.62597E-001	0.00000E+000	1.48100E+000	-9.19881E-005	12	...........	-327.56
	9957	4979	1.48400E+000	6.76186E-001	0.00000E+000	1.48600E+000	-9.36214E-005	12	...........	-327.56
	9962	4981.5	1.48902E+000	6.86593E-001	0.00000E+000	1.49100E+000	-9.13881E-005	12	...........	-327.56
	9967	4984	1.49399E+000	6.99973E-001	0.00000E+000	1.49600E+000	-9.25881E-005	12	...........	-327.56
	9972	4986.5	1.49894E+000	7.12995E-001	0.00000E+000	1.50100E+000	-9.54548E-005	12	...........	-327.56
	9977	4989	1.50394E+000	7.25967E-001	0.00000E+000	1.50600E+000	-8.99881E-005	12	...........	-327.56
	9982	4991.5	1.50893E+000	7.39199E-001	0.00000E+000	1.51100E+000	-9.20548E-005	12	...........	-327.56
	9987	4994	1.51396E+000	7.52766E-001	0.00000E+000	1.51600E+000	-8.94881E-005	12	...........	-327.56
	9992	4996.5	1.51898E+000	7.65744E-001	0.00000E+000	1.52100E+000	-8.94548E-005	12	...........	-327.56
	9997	4999	1.52386E+000	7.79180E-001	0.00000E+000	1.52600E+000	-9.17881E-005	12	...........	-327.56
	10002	5001.5	1.52889E+000	7.95983E-001	0.00000E+000	1.53100E+000	-9.14548E-005	12	...........	-327.56
	10007	5004	1.53388E+000	8.06484E-001	0.00000E+000	1.53600E+000	-8.89881E-005	12	...........	-327.56
	10012	5006.5	1.53883E+000	8.19387E-001	0.00000E+000	1.54100E+000	-9.05214E-005	12	...........	-327.56
	10017	5009	1.54387E+000	8.31595E-001	0.00000E+000	1.54600E+000	-9.19548E-005	12	...........	-327.56
	10022	5011.5	1.54883E+000	8.44555E-001	0.00000E+000	1.55100E+000	-8.98881E-005	12	...........	-327.56
	10027	5014	1.55376E+000	8.60835E-001	0.00000E+000	1.55600E+000	-8.97214E-005	12	...........	-327.56
	10032	5016.5	1.55878E+000	8.71888E-001	0.00000E+000	1.56100E+000	-8.94881E-005	12	...........	-327.56
	10037	5019	1.56381E+000	8.83794E-001	0.00000E+000	1.56600E+000	-9.01548E-005	12	...........	-327.56
	10042	5021.5	1.56877E+000	8.98173E-001	0.00000E+000	1.57100E+000	-8.84881E-005	12	...........	-327.56
	10047	5024	1.57379E+000	9.12548E-001	0.00000E+000	1.57600E+000	-8.94214E-005	12	...........	-327.56
	10052	5026.5	1.57870E+000	9.23622E-001	0.00000E+000	1.58100E+000	-9.32214E-005	12	...........	-327.56
	10057	5029	1.58373E+000	9.35861E-001	0.00000E+000	1.58600E+000	-8.99214E-005	12	...........	-327.56
	10062	5031.5	1.58874E+000	9.51882E-001	0.00000E+000	1.59100E+000	-8.90214E-005	12	...........	-327.56
	10067	5034	1.59374E+000	9.59962E-001	0.00000E+000	1.59600E+000	-8.84881E-005	12	...........	-327.56
	10072	5036.5	1.59874E+000	9.74615E-001	0.00000E+000	1.60100E+000	-9.03214E-005	12	...........	-327.56
	10077	5039	1.60366E+000	9.87626E-001	0.00000E+000	1.60600E+000	-8.95881E-005	12	...........	-327.56
	10082	5041.5	1.60866E+000	1.00289E+000	0.00000E+000	1.61100E+000	-9.18548E-005	12	...........	-327.56
	10087	5044	1.61366E+000	1.01478E+000	0.00000E+000	1.61600E+000	-8.75548E-005	12	...........	-327.56
	10092	5046.5	1.61866E+000	1.02944E+000	0.00000E+000	1.62100E+000	-8.73548E-005	12	...........	-327.56
	10097	5049	1.62366E+000	1.04091E+000	0.00000E+000	1.62600E+000	-8.96214E-005	12	...........	-327.56
	10102	5051.5	1.62864E+000	1.05585E+000	0.00000E+000	1.63100E+000	-9.08881E-005	12	...........	-327.56
	10107	5054	1.63357E+000	1.06863E+000	0.00000E+000	1.63600E+000	-9.22548E-005	12	...........	-327.56
	10112	5056.5	1.63859E+000	1.08458E+000	0.00000E+000	1.64100E+000	-9.05881E-005	12	...........	-327.56
	10117	5059	1.64361E+000	1.09834E+000	0.00000E+000	1.64600E+000	-9.21214E-005	12	...........	-327.56
	10122	5061.5	1.64862E+000	1.11028E+000	0.00000E+000	1.65100E+000	-8.92214E-005	12	...........	-327.56
	10127	5064	1.65351E+000	1.13040E+000	0.00000E+000	1.65600E+000	-9.18214E-005	12	...........	-327.56
	10132	5066.5	1.65855E+000	1.13433E+000	0.00000E+000	1.66100E+000	-9.20214E-005	12	...........	-327.56
	10137	5069	1.66352E+000	1.15467E+000	0.00000E+000	1.66600E+000	-8.70214E-005	12	...........	-327.56
	10142	5071.5	1.66857E+000	1.17054E+000	0.00000E+000	1.67100E+000	-9.02881E-005	12	...........	-327.56
	10147	5074	1.67356E+000	1.18335E+000	0.00000E+000	1.67600E+000	-8.86214E-005	12	...........	-327.56
	10152	5076.5	1.67841E+000	1.20082E+000	0.00000E+000	1.68100E+000	-9.22214E-005	12	...........	-327.56
	10157	5079	1.68348E+000	1.21545E+000	0.00000E+000	1.68600E+000	-9.05881E-005	12	...........	-327.56
	10162	5081.5	1.68847E+000	1.22819E+000	0.00000E+000	1.69100E+000	-9.05214E-005	12	...........	-327.56
	10167	5084	1.69350E+000	1.24521E+000	0.00000E+000	1.69600E+000	-9.14881E-005	12	...........	-327.56
	10171	5086	1.69750E+000	1.25155E+000	0.00000E+000	1.70000E+000	-9.04214E-005	12	...........	-327.56