File: testing/data/240902_06_MCL13_cswWE_CV2_750C_CO2.DTA
EXPLAIN
TAG	CV
TITLE	LABEL	Cyclic Voltammetry	Test Identifier
DATE	LABEL	9/2/2024	Date
TIME	LABEL	20:48:29	Time
NOTES	NOTES	5	Notes...
	cswWE - carbon steel wire
cspWE - carbon steel plate 2x2 tapered

Carbon steel plate counter electrode
Carbon steel wire reference electrode
PSTAT	PSTAT	REF3000-48128	Potentiostat
VINIT	POTEN	0.00000E+000	T	Initial E (V)
VLIMIT1	POTEN	1.70000E+000	F	Scan Limit 1 (V)
VLIMIT2	POTEN	-1.00000E+000	F	Scan Limit 2 (V)
VFINAL	POTEN	1.70000E+000	F	Final E (V)
SCANRATE	QUANT	2.00000E+000	Scan Rate (mV/s)
STEPSIZE	QUANT	1.00000E+000	Step Size (mV)
CYCLES	IQUANT	2	Cycles (#)
IMODE	SELECTOR	0	I/E Range Mode
IRANGE	QUANT	3.00000E-001	Max Current (mA)
AREA	QUANT	1.00000E+000	Sample Area (cm^2)
EQDELAY	QUANT	0.00000E+000	Equil. Time (s)
IRCOMP	SELECTOR	0	IRComp
PFCOR	QUANT	5.00000E+001	PF Corr. (ohm)
SAMPLINGMODE	SELECTOR	1	Sampling Mode
EOC	QUANT	0.1104682	Open Circuit (V)
ELECTRODETYPE	SELECTOR	0	Electrode Type
STRIPPING	TOGGLE	F	Used for Stripping
SEQUENCER	TOGGLE	TRUE	Run as Sequence
PSTATMODEL	IQUANT	5	Pstat Model
PSTATSECTION	LABEL	REF3000-48128	Pstat Section
PSTATSERIALNO	LABEL	48128	Pstat Serial Number
CTRLMODE	IQUANT	1	Control Mode
ELECTROMETER	IQUANT	0	RE=0 or CS=1
IESTAB	IQUANT	2	I/E Stability
CASPEED	IQUANT	4	Control Amp Speed
CONVENTION	IQUANT	1	Current Convention
ICHRANGE	IQUANT	2	Ich Range
ICHRANGEMODE	TOGGLE	F	Ich Auto Range
ICHOFFSETENABLE	TOGGLE	F	Ich Offset Enable
ICHOFFSET	QUANT	0	Ich Offset (V)
ICHFILTER	IQUANT	3	Ich Filter
VCHRANGE	IQUANT	2	Vch Range
VCHRANGEMODE	TOGGLE	F	Vch Auto Range
VCHOFFSETENABLE	TOGGLE	F	Vch Offset Enable
VCHOFFSET	QUANT	0	Vch Offset (V)
VCHFILTER	IQUANT	3	Vch Filter
ACHRANGE	IQUANT	2	Ach Range
ACHOFFSETENABLE	TOGGLE	F	Ach Offset Enable
ACHOFFSET	QUANT	0	Ach Offset (V)
ACHFILTER	IQUANT	1	Ach Filter
IERANGELOWERLIMIT	IQUANT	2	I/E Range Lower Limit
IERANGEMODE	TOGGLE	T	I/E AutoRange
IERANGE	IQUANT	9	I/E Range
POSFEEDENABLE	TOGGLE	F	Positive Feedback IR Comp
POSFEEDRESISTANCE	QUANT	0	Positive Feedback Resistance (ohm)
ACHSELECT	IQUANT	4	Ach Select
SENSECABLEID	IQUANT	14	Sense Cable ID
PWRCABLEID	IQUANT	7	Power Cable ID
DCCALDATE	LABEL	8/16/2024	DC Calibration Date
ACCALDATE	LABEL	8/16/2024	AC Calibration Date
THERMOSELECT	IQUANT	1	Thermo Select
FRAMEWORKVERSION	LABEL	7.10.3	Framework Version
INSTRUMENTVERSION	LABEL	4.91	Instrument Version
COMMVERSION	LABEL	5.10	Communications Version
CPUPLDVERSION	LABEL	6.00	CPU PLD Version
CTRLPLDVERSION	LABEL	3.21	CTRL PLD Version
PSTATPLDVERSION	LABEL	0.00	PSTAT PLD Version
COMPLIANCEVOLTAGE	IQUANT	0	Compliance Voltage
CURVE1	TABLE
	Pt	T	Vf	Im	Vu	Sig	Ach	IERange	Over	Temp
	#	s	V vs. Ref.	A	V	V	V	#	bits	deg C
	0	0.5	1.10181E-001	4.00046E-004	0.00000E+000	1.10450E-001	-8.47214E-005	9	...........	-327.56
	9	5	1.18778E-001	2.91926E-003	0.00000E+000	1.19450E-001	-8.45881E-005	9	...........	-327.56
	18	9.5	1.28116E-001	5.03620E-003	0.00000E+000	1.28450E-001	-8.55548E-005	10	...........	-327.56
	27	14	1.37101E-001	7.05631E-003	0.00000E+000	1.37450E-001	-8.63881E-005	10	...........	-327.56
	36	18.5	1.46022E-001	8.89426E-003	0.00000E+000	1.46450E-001	-8.66548E-005	10	...........	-327.56
	45	23	1.55073E-001	1.05987E-002	0.00000E+000	1.55450E-001	-9.79548E-005	10	...........	-327.56
	54	27.5	1.64022E-001	1.24038E-002	0.00000E+000	1.64450E-001	-9.44214E-005	10	...........	-327.56
	63	32	1.72943E-001	1.41246E-002	0.00000E+000	1.73450E-001	-9.56881E-005	10	...........	-327.56
	72	36.5	1.81946E-001	1.57974E-002	0.00000E+000	1.82450E-001	-8.93881E-005	10	...........	-327.56
	81	41	1.90951E-001	1.76384E-002	0.00000E+000	1.91450E-001	-9.47881E-005	10	...........	-327.56
	90	45.5	1.99912E-001	1.92887E-002	0.00000E+000	2.00450E-001	-9.68548E-005	10	...........	-327.56
	99	50	2.08860E-001	2.11246E-002	0.00000E+000	2.09450E-001	-9.57214E-005	10	...........	-327.56
	108	54.5	2.17771E-001	2.30293E-002	0.00000E+000	2.18450E-001	-9.11214E-005	10	...........	-327.56
	117	59	2.26752E-001	2.47546E-002	0.00000E+000	2.27450E-001	-9.06548E-005	10	...........	-327.56
	126	63.5	2.35785E-001	2.67351E-002	0.00000E+000	2.36450E-001	-8.88881E-005	10	...........	-327.56
	135	68	2.44962E-001	2.84823E-002	0.00000E+000	2.45450E-001	-9.68548E-005	11	...........	-327.56
	144	72.5	2.54011E-001	3.05136E-002	0.00000E+000	2.54450E-001	-9.68214E-005	11	...........	-327.56
	153	77	2.63052E-001	3.27795E-002	0.00000E+000	2.63450E-001	-8.73881E-005	11	...........	-327.56
	162	81.5	2.71956E-001	3.46916E-002	0.00000E+000	2.72450E-001	-9.57881E-005	11	...........	-327.56
	171	86	2.80992E-001	3.68126E-002	0.00000E+000	2.81450E-001	-9.84881E-005	11	...........	-327.56
	180	90.5	2.90030E-001	3.85493E-002	0.00000E+000	2.90450E-001	-9.90548E-005	11	...........	-327.56
	189	95	2.99015E-001	4.10628E-002	0.00000E+000	2.99450E-001	-9.49214E-005	11	...........	-327.56
	198	99.5	3.07931E-001	4.36115E-002	0.00000E+000	3.08450E-001	-9.11548E-005	11	...........	-327.56
	207	104	3.16966E-001	4.62887E-002	0.00000E+000	3.17450E-001	-9.40214E-005	11	...........	-327.56
	216	108.5	3.25880E-001	4.94945E-002	0.00000E+000	3.26450E-001	-9.56214E-005	11	...........	-327.56
	225	113	3.34925E-001	5.24344E-002	0.00000E+000	3.35450E-001	-1.00055E-004	11	...........	-327.56
	234	117.5	3.43929E-001	5.34938E-002	0.00000E+000	3.44450E-001	-9.55881E-005	11	...........	-327.56
	243	122	3.52872E-001	5.19997E-002	0.00000E+000	3.53450E-001	-9.90214E-005	11	...........	-327.56
	252	126.5	3.61904E-001	4.81394E-002	0.00000E+000	3.62450E-001	-8.89214E-005	11	...........	-327.56
	261	131	3.70905E-001	4.23056E-002	0.00000E+000	3.71450E-001	-9.15548E-005	11	...........	-327.56
	270	135.5	3.79871E-001	3.54649E-002	0.00000E+000	3.80450E-001	-9.64548E-005	11	...........	-327.56
	279	140	3.88930E-001	2.93601E-002	0.00000E+000	3.89450E-001	-9.62548E-005	11	...........	-327.56
	288	144.5	3.97820E-001	2.53727E-002	0.00000E+000	3.98450E-001	-9.68214E-005	11	...........	-327.56
	297	149	4.06633E-001	2.29506E-002	0.00000E+000	4.07450E-001	-8.96548E-005	10	...........	-327.56
	306	153.5	4.15680E-001	2.18790E-002	0.00000E+000	4.16450E-001	-9.05881E-005	10	...........	-327.56
	315	158	4.24605E-001	2.09708E-002	0.00000E+000	4.25450E-001	-9.22881E-005	10	...........	-327.56
	324	162.5	4.33642E-001	2.09190E-002	0.00000E+000	4.34450E-001	-9.52548E-005	10	...........	-327.56
	333	167	4.42674E-001	2.09444E-002	0.00000E+000	4.43450E-001	-9.40214E-005	10	...........	-327.56
	342	171.5	4.51586E-001	2.12169E-002	0.00000E+000	4.52450E-001	-9.04881E-005	10	...........	-327.56
	351	176	4.60657E-001	2.16960E-002	0.00000E+000	4.61450E-001	-8.93548E-005	10	...........	-327.56
	360	180.5	4.69643E-001	2.21863E-002	0.00000E+000	4.70450E-001	-8.97214E-005	10	...........	-327.56
	369	185	4.78566E-001	2.27247E-002	0.00000E+000	4.79450E-001	-9.22548E-005	10	...........	-327.56
	378	189.5	4.87590E-001	2.30985E-002	0.00000E+000	4.88450E-001	-9.17881E-005	10	...........	-327.56
	387	194	4.96633E-001	2.33150E-002	0.00000E+000	4.97450E-001	-9.05548E-005	10	...........	-327.56
	396	198.5	5.05548E-001	2.37608E-002	0.00000E+000	5.06450E-001	-9.39881E-005	10	...........	-327.56
	405	203	5.14542E-001	2.39516E-002	0.00000E+000	5.15450E-001	-9.42548E-005	10	...........	-327.56
	414	207.5	5.23539E-001	2.40627E-002	0.00000E+000	5.24450E-001	-9.50881E-005	10	...........	-327.56
	423	212	5.32484E-001	2.38914E-002	0.00000E+000	5.33450E-001	-9.25881E-005	10	...........	-327.56
	432	216.5	5.41535E-001	2.40456E-002	0.00000E+000	5.42450E-001	-8.85881E-005	10	...........	-327.56
	441	221	5.50488E-001	2.40627E-002	0.00000E+000	5.51450E-001	-9.10548E-005	10	...........	-327.56
	450	225.5	5.59460E-001	2.39166E-002	0.00000E+000	5.60450E-001	-9.27214E-005	10	...........	-327.56
	459	230	5.68522E-001	2.38548E-002	0.00000E+000	5.69450E-001	-9.11214E-005	10	...........	-327.56
	468	234.5	5.77485E-001	2.38448E-002	0.00000E+000	5.78450E-001	-9.51881E-005	10	...........	-327.56
	477	239	5.86458E-001	2.37417E-002	0.00000E+000	5.87450E-001	-9.21881E-005	10	...........	-327.56
	486	243.5	5.95501E-001	2.36756E-002	0.00000E+000	5.96450E-001	-9.00881E-005	10	...........	-327.56
	495	248	6.04412E-001	2.36008E-002	0.00000E+000	6.05450E-001	-8.83548E-005	10	...........	-327.56
	504	252.5	6.13457E-001	2.34923E-002	0.00000E+000	6.14450E-001	-9.20881E-005	10	...........	-327.56
	513	257	6.22471E-001	2.33976E-002	0.00000E+000	6.23450E-001	-9.50548E-005	10	...........	-327.56
	522	261.5	6.31406E-001	2.33136E-002	0.00000E+000	6.32450E-001	-9.15548E-005	10	...........	-327.56
	531	266	6.40427E-001	2.31995E-002	0.00000E+000	6.41450E-001	-9.26214E-005	10	...........	-327.56
	540	270.5	6.49467E-001	2.29543E-002	0.00000E+000	6.50450E-001	-9.17214E-005	10	...........	-327.56
	549	275	6.58384E-001	2.28949E-002	0.00000E+000	6.59450E-001	-9.17214E-005	10	...........	-327.56
	558	279.5	6.67427E-001	2.27444E-002	0.00000E+000	6.68450E-001	-9.57881E-005	10	...........	-327.56
	567	284	6.76422E-001	2.26604E-002	0.00000E+000	6.77450E-001	-9.10548E-005	10	...........	-327.56
	576	288.5	6.85384E-001	2.25545E-002	0.00000E+000	6.86450E-001	-8.83214E-005	10	...........	-327.56
	585	293	6.94402E-001	2.24424E-002	0.00000E+000	6.95450E-001	-9.84881E-005	10	...........	-327.56
	594	297.5	7.03407E-001	2.22467E-002	0.00000E+000	7.04450E-001	-9.20548E-005	10	...........	-327.56
	603	302	7.12373E-001	2.20794E-002	0.00000E+000	7.13450E-001	-9.33548E-005	10	...........	-327.56
	612	306.5	7.21388E-001	2.19571E-002	0.00000E+000	7.22450E-001	-9.57881E-005	10	...........	-327.56
	621	311	7.30283E-001	2.18345E-002	0.00000E+000	7.31450E-001	-9.14881E-005	10	...........	-327.56
	630	315.5	7.39324E-001	2.16825E-002	0.00000E+000	7.40450E-001	-9.29214E-005	10	...........	-327.56
	639	320	7.48356E-001	2.15146E-002	0.00000E+000	7.49450E-001	-9.11881E-005	10	...........	-327.56
	648	324.5	7.57286E-001	2.14113E-002	0.00000E+000	7.58450E-001	-9.49548E-005	10	...........	-327.56
	657	329	7.66335E-001	2.12531E-002	0.00000E+000	7.67450E-001	-9.71548E-005	10	...........	-327.56
	666	333.5	7.75351E-001	2.11397E-002	0.00000E+000	7.76450E-001	-9.13214E-005	10	...........	-327.56
	675	338	7.84284E-001	2.09936E-002	0.00000E+000	7.85450E-001	-8.79548E-005	10	...........	-327.56
	684	342.5	7.93305E-001	2.09073E-002	0.00000E+000	7.94450E-001	-9.04881E-005	10	...........	-327.56
	693	347	8.02339E-001	2.08052E-002	0.00000E+000	8.03450E-001	-9.23881E-005	10	...........	-327.56
	702	351.5	8.11254E-001	2.06655E-002	0.00000E+000	8.12450E-001	-9.36214E-005	10	...........	-327.56
	711	356	8.20267E-001	2.05913E-002	0.00000E+000	8.21450E-001	-9.26214E-005	10	...........	-327.56
	720	360.5	8.29283E-001	2.05298E-002	0.00000E+000	8.30450E-001	-8.89548E-005	10	...........	-327.56
	729	365	8.38274E-001	2.04405E-002	0.00000E+000	8.39450E-001	-9.25548E-005	10	...........	-327.56
	738	369.5	8.47258E-001	2.04105E-002	0.00000E+000	8.48450E-001	-9.29881E-005	10	...........	-327.56
	747	374	8.56283E-001	2.04204E-002	0.00000E+000	8.57450E-001	-9.43548E-005	10	...........	-327.56
	756	378.5	8.65202E-001	2.04466E-002	0.00000E+000	8.66450E-001	-9.35548E-005	10	...........	-327.56
	765	383	8.74256E-001	2.05448E-002	0.00000E+000	8.75450E-001	-9.10881E-005	10	...........	-327.56
	774	387.5	8.83225E-001	2.06296E-002	0.00000E+000	8.84450E-001	-9.12214E-005	10	...........	-327.56
	783	392	8.92198E-001	2.07690E-002	0.00000E+000	8.93450E-001	-9.14214E-005	10	...........	-327.56
	792	396.5	9.01231E-001	2.09434E-002	0.00000E+000	9.02450E-001	-9.25214E-005	10	...........	-327.56
	801	401	9.10186E-001	2.12283E-002	0.00000E+000	9.11450E-001	-9.10548E-005	10	...........	-327.56
	810	405.5	9.19168E-001	2.15715E-002	0.00000E+000	9.20450E-001	-8.92214E-005	10	...........	-327.56
	819	410	9.28166E-001	2.19682E-002	0.00000E+000	9.29450E-001	-9.24548E-005	10	...........	-327.56
	828	414.5	9.37069E-001	2.24617E-002	0.00000E+000	9.38450E-001	-9.10881E-005	10	...........	-327.56
	837	419	9.46091E-001	2.31608E-002	0.00000E+000	9.47450E-001	-8.84214E-005	10	...........	-327.56
	846	423.5	9.55130E-001	2.40600E-002	0.00000E+000	9.56450E-001	-9.11548E-005	10	...........	-327.56
	855	428	9.64030E-001	2.51416E-002	0.00000E+000	9.65450E-001	-8.91548E-005	10	...........	-327.56
	864	432.5	9.73042E-001	2.65332E-002	0.00000E+000	9.74450E-001	-8.44881E-005	10	...........	-327.56
	873	437	9.82361E-001	2.81906E-002	0.00000E+000	9.83450E-001	-9.57548E-005	11	...........	-327.56
	882	441.5	9.91284E-001	2.99822E-002	0.00000E+000	9.92450E-001	-9.45548E-005	11	...........	-327.56
	891	446	1.00032E+000	3.20582E-002	0.00000E+000	1.00145E+000	-9.35881E-005	11	...........	-327.56
	900	450.5	1.00935E+000	3.37542E-002	0.00000E+000	1.01045E+000	-9.37214E-005	11	...........	-327.56
	909	455	1.01828E+000	3.60505E-002	0.00000E+000	1.01945E+000	-9.59214E-005	11	...........	-327.56
	918	459.5	1.02729E+000	3.84699E-002	0.00000E+000	1.02845E+000	-9.51881E-005	11	...........	-327.56
	927	464	1.03627E+000	4.11463E-002	0.00000E+000	1.03745E+000	-9.48548E-005	11	...........	-327.56
	936	468.5	1.04523E+000	4.34978E-002	0.00000E+000	1.04645E+000	-9.46214E-005	11	...........	-327.56
	945	473	1.05429E+000	4.58187E-002	0.00000E+000	1.05545E+000	-9.60214E-005	11	...........	-327.56
	954	477.5	1.06315E+000	4.78689E-002	0.00000E+000	1.06445E+000	-9.50548E-005	11	...........	-327.56
	963	482	1.07222E+000	4.96711E-002	0.00000E+000	1.07345E+000	-9.47548E-005	11	...........	-327.56
	972	486.5	1.08124E+000	5.11525E-002	0.00000E+000	1.08245E+000	-9.32214E-005	11	...........	-327.56
	981	491	1.09016E+000	5.20164E-002	0.00000E+000	1.09145E+000	-9.48214E-005	11	...........	-327.56
	990	495.5	1.09917E+000	5.21398E-002	0.00000E+000	1.10045E+000	-9.58214E-005	11	...........	-327.56
	999	500	1.10822E+000	5.10868E-002	0.00000E+000	1.10945E+000	-9.63214E-005	11	...........	-327.56
	1008	504.5	1.11716E+000	4.91664E-002	0.00000E+000	1.11845E+000	-9.48548E-005	11	...........	-327.56
	1017	509	1.12622E+000	4.66957E-002	0.00000E+000	1.12745E+000	-9.39881E-005	11	...........	-327.56
	1026	513.5	1.13518E+000	4.45108E-002	0.00000E+000	1.13645E+000	-9.36214E-005	11	...........	-327.56
	1035	518	1.14412E+000	4.34627E-002	0.00000E+000	1.14545E+000	-9.48881E-005	11	...........	-327.56
	1044	522.5	1.15315E+000	4.38437E-002	0.00000E+000	1.15445E+000	-9.70548E-005	11	...........	-327.56
	1053	527	1.16218E+000	4.55896E-002	0.00000E+000	1.16345E+000	-9.11881E-005	11	...........	-327.56
	1062	531.5	1.17113E+000	4.84041E-002	0.00000E+000	1.17245E+000	-9.18548E-005	11	...........	-327.56
	1071	536	1.18011E+000	5.21934E-002	0.00000E+000	1.18145E+000	-9.50881E-005	11	...........	-327.56
	1080	540.5	1.18912E+000	5.65112E-002	0.00000E+000	1.19045E+000	-9.35881E-005	11	...........	-327.56
	1089	545	1.19804E+000	6.11749E-002	0.00000E+000	1.19945E+000	-9.28548E-005	11	...........	-327.56
	1098	549.5	1.20708E+000	6.64478E-002	0.00000E+000	1.20845E+000	-8.66548E-005	11	...........	-327.56
	1107	554	1.21604E+000	7.25026E-002	0.00000E+000	1.21745E+000	-8.98548E-005	11	...........	-327.56
	1116	558.5	1.22501E+000	7.91690E-002	0.00000E+000	1.22645E+000	-9.24548E-005	11	...........	-327.56
	1125	563	1.23403E+000	8.67966E-002	0.00000E+000	1.23545E+000	-9.35881E-005	11	...........	-327.56
	1134	567.5	1.24301E+000	9.51639E-002	0.00000E+000	1.24445E+000	-9.65881E-005	11	...........	-327.56
	1143	572	1.25196E+000	1.04531E-001	0.00000E+000	1.25345E+000	-9.27214E-005	11	...........	-327.56
	1152	576.5	1.26099E+000	1.14785E-001	0.00000E+000	1.26245E+000	-9.33548E-005	11	...........	-327.56
	1161	581	1.26988E+000	1.25999E-001	0.00000E+000	1.27145E+000	-9.23214E-005	11	...........	-327.56
	1170	585.5	1.27890E+000	1.38043E-001	0.00000E+000	1.28045E+000	-9.05214E-005	11	...........	-327.56
	1179	590	1.28791E+000	1.51367E-001	0.00000E+000	1.28945E+000	-9.29548E-005	11	...........	-327.56
	1188	594.5	1.29680E+000	1.65937E-001	0.00000E+000	1.29845E+000	-9.40214E-005	11	...........	-327.56
	1197	599	1.30581E+000	1.81804E-001	0.00000E+000	1.30745E+000	-9.22881E-005	11	...........	-327.56
	1206	603.5	1.31481E+000	1.98420E-001	0.00000E+000	1.31645E+000	-9.23881E-005	11	...........	-327.56
	1215	608	1.32372E+000	2.16422E-001	0.00000E+000	1.32545E+000	-9.30548E-005	11	...........	-327.56
	1224	612.5	1.33270E+000	2.34707E-001	0.00000E+000	1.33445E+000	-9.00881E-005	11	...........	-327.56
	1233	617	1.34164E+000	2.55444E-001	0.00000E+000	1.34345E+000	-9.23548E-005	11	...........	-327.56
	1242	621.5	1.35084E+000	2.76774E-001	0.00000E+000	1.35245E+000	-9.28548E-005	12	...........	-327.56
	1251	626	1.35989E+000	2.97468E-001	0.00000E+000	1.36145E+000	-9.63548E-005	12	...........	-327.56
	1260	630.5	1.36885E+000	3.18579E-001	0.00000E+000	1.37045E+000	-9.53548E-005	12	...........	-327.56
	1269	635	1.37780E+000	3.40003E-001	0.00000E+000	1.37945E+000	-9.50214E-005	12	...........	-327.56
	1278	639.5	1.38681E+000	3.61080E-001	0.00000E+000	1.38845E+000	-9.67548E-005	12	...........	-327.56
	1287	644	1.39572E+000	3.84689E-001	0.00000E+000	1.39745E+000	-9.32548E-005	12	...........	-327.56
	1296	648.5	1.40474E+000	4.08557E-001	0.00000E+000	1.40645E+000	-9.43548E-005	12	...........	-327.56
	1305	653	1.41377E+000	4.33109E-001	0.00000E+000	1.41545E+000	-9.39548E-005	12	...........	-327.56
	1314	657.5	1.42263E+000	4.57639E-001	0.00000E+000	1.42445E+000	-9.85214E-005	12	...........	-327.56
	1323	662	1.43167E+000	4.82832E-001	0.00000E+000	1.43345E+000	-9.48881E-005	12	...........	-327.56
	1332	666.5	1.44068E+000	5.06141E-001	0.00000E+000	1.44245E+000	-8.83214E-005	12	...........	-327.56
	1341	671	1.44956E+000	5.31581E-001	0.00000E+000	1.45145E+000	-9.37548E-005	12	...........	-327.56
	1350	675.5	1.45859E+000	5.54911E-001	0.00000E+000	1.46045E+000	-9.58214E-005	12	...........	-327.56
	1359	680	1.46761E+000	5.81862E-001	0.00000E+000	1.46945E+000	-9.49214E-005	12	...........	-327.56
	1368	684.5	1.47659E+000	6.03835E-001	0.00000E+000	1.47845E+000	-9.42881E-005	12	...........	-327.56
	1377	689	1.48555E+000	6.30890E-001	0.00000E+000	1.48745E+000	-9.21548E-005	12	...........	-327.56
	1386	693.5	1.49454E+000	6.54238E-001	0.00000E+000	1.49645E+000	-9.42214E-005	12	...........	-327.56
	1395	698	1.50346E+000	6.78778E-001	0.00000E+000	1.50545E+000	-9.34548E-005	12	...........	-327.56
	1404	702.5	1.51248E+000	7.03160E-001	0.00000E+000	1.51445E+000	-9.29214E-005	12	...........	-327.56
	1413	707	1.52149E+000	7.32023E-001	0.00000E+000	1.52345E+000	-9.13881E-005	12	...........	-327.56
	1422	711.5	1.53039E+000	7.52341E-001	0.00000E+000	1.53245E+000	-9.14881E-005	12	...........	-327.56
	1431	716	1.53939E+000	7.77869E-001	0.00000E+000	1.54145E+000	-9.05214E-005	12	...........	-327.56
	1440	720.5	1.54835E+000	8.02121E-001	0.00000E+000	1.55045E+000	-9.02214E-005	12	...........	-327.56
	1449	725	1.55731E+000	8.28539E-001	0.00000E+000	1.55945E+000	-9.14214E-005	12	...........	-327.56
	1458	729.5	1.56633E+000	8.47630E-001	0.00000E+000	1.56845E+000	-9.67548E-005	12	...........	-327.56
	1467	734	1.57521E+000	8.73341E-001	0.00000E+000	1.57745E+000	-9.52214E-005	12	...........	-327.56
	1476	738.5	1.58425E+000	8.96050E-001	0.00000E+000	1.58645E+000	-9.24214E-005	12	...........	-327.56
	1485	743	1.59327E+000	9.21222E-001	0.00000E+000	1.59545E+000	-9.14214E-005	12	...........	-327.56
	1494	747.5	1.60217E+000	9.40846E-001	0.00000E+000	1.60445E+000	-9.53881E-005	12	...........	-327.56
	1503	752	1.61117E+000	9.62513E-001	0.00000E+000	1.61345E+000	-9.26214E-005	12	...........	-327.56
	1512	756.5	1.62020E+000	9.86953E-001	0.00000E+000	1.62245E+000	-9.42548E-005	12	...........	-327.56
	1521	761	1.62914E+000	1.01439E+000	0.00000E+000	1.63145E+000	-9.22548E-005	12	...........	-327.56
	1530	765.5	1.63814E+000	1.03912E+000	0.00000E+000	1.64045E+000	-9.18214E-005	12	...........	-327.56
	1539	770	1.64713E+000	1.05847E+000	0.00000E+000	1.64945E+000	-9.17548E-005	12	...........	-327.56
	1548	774.5	1.65605E+000	1.08353E+000	0.00000E+000	1.65845E+000	-9.34214E-005	12	...........	-327.56
	1557	779	1.66507E+000	1.11609E+000	0.00000E+000	1.66745E+000	-9.19214E-005	12	...........	-327.56
	1566	783.5	1.67409E+000	1.13293E+000	0.00000E+000	1.67645E+000	-9.36548E-005	12	...........	-327.56
	1575	788	1.68306E+000	1.14695E+000	0.00000E+000	1.68545E+000	-9.22881E-005	12	...........	-327.56
	1584	792.5	1.69203E+000	1.17917E+000	0.00000E+000	1.69445E+000	-9.14214E-005	12	...........	-327.56
	1593	797	1.69304E+000	1.18097E+000	0.00000E+000	1.69545E+000	-9.09214E-005	12	...........	-327.56
	1602	801.5	1.68400E+000	1.16161E+000	0.00000E+000	1.68645E+000	-9.43881E-005	12	...........	-327.56
	1611	806	1.67508E+000	1.14542E+000	0.00000E+000	1.67745E+000	-9.41548E-005	12	...........	-327.56
	1620	810.5	1.66609E+000	1.12818E+000	0.00000E+000	1.66845E+000	-9.43881E-005	12	...........	-327.56
	1629	815	1.65706E+000	1.10450E+000	0.00000E+000	1.65945E+000	-9.15881E-005	12	...........	-327.56
	1638	819.5	1.64814E+000	1.08388E+000	0.00000E+000	1.65045E+000	-9.00548E-005	12	...........	-327.56
	1647	824	1.63916E+000	1.06534E+000	0.00000E+000	1.64145E+000	-9.04214E-005	12	...........	-327.56
	1656	828.5	1.63015E+000	1.03853E+000	0.00000E+000	1.63245E+000	-9.70881E-005	12	...........	-327.56
	1665	833	1.62121E+000	1.01690E+000	0.00000E+000	1.62345E+000	-9.47214E-005	12	...........	-327.56
	1674	837.5	1.61218E+000	9.96718E-001	0.00000E+000	1.61445E+000	-9.67548E-005	12	...........	-327.56
	1683	842	1.60315E+000	9.75834E-001	0.00000E+000	1.60545E+000	-9.11214E-005	12	...........	-327.56
	1692	846.5	1.59426E+000	9.53135E-001	0.00000E+000	1.59645E+000	-8.81214E-005	12	...........	-327.56
	1701	851	1.58522E+000	9.29728E-001	0.00000E+000	1.58745E+000	-9.17548E-005	12	...........	-327.56
	1710	855.5	1.57618E+000	9.12017E-001	0.00000E+000	1.57845E+000	-9.43548E-005	12	...........	-327.56
	1719	860	1.56732E+000	8.88207E-001	0.00000E+000	1.56945E+000	-9.63214E-005	12	...........	-327.56
	1728	864.5	1.55832E+000	8.66884E-001	0.00000E+000	1.56045E+000	-9.18881E-005	12	...........	-327.56
	1737	869	1.54925E+000	8.44800E-001	0.00000E+000	1.55145E+000	-9.50548E-005	12	...........	-327.56
	1746	873.5	1.54034E+000	8.23183E-001	0.00000E+000	1.54245E+000	-9.09881E-005	12	...........	-327.56
	1755	878	1.53139E+000	8.02726E-001	0.00000E+000	1.53345E+000	-9.45881E-005	12	...........	-327.56
	1764	882.5	1.52244E+000	7.76958E-001	0.00000E+000	1.52445E+000	-9.37881E-005	12	...........	-327.56
	1773	887	1.51348E+000	7.54837E-001	0.00000E+000	1.51545E+000	-9.45881E-005	12	...........	-327.56
	1782	891.5	1.50443E+000	7.34330E-001	0.00000E+000	1.50645E+000	-9.35881E-005	12	...........	-327.56
	1791	896	1.49549E+000	7.11283E-001	0.00000E+000	1.49745E+000	-9.25881E-005	12	...........	-327.56
	1800	900.5	1.48651E+000	6.88740E-001	0.00000E+000	1.48845E+000	-9.38881E-005	12	...........	-327.56
	1809	905	1.47750E+000	6.68414E-001	0.00000E+000	1.47945E+000	-8.97548E-005	12	...........	-327.56
	1818	909.5	1.46857E+000	6.46304E-001	0.00000E+000	1.47045E+000	-9.27548E-005	12	...........	-327.56
	1827	914	1.45956E+000	6.26348E-001	0.00000E+000	1.46145E+000	-9.48548E-005	12	...........	-327.56
	1836	918.5	1.45056E+000	6.06604E-001	0.00000E+000	1.45245E+000	-9.59881E-005	12	...........	-327.56
	1845	923	1.44161E+000	5.86721E-001	0.00000E+000	1.44345E+000	-9.44214E-005	12	...........	-327.56
	1854	927.5	1.43262E+000	5.63965E-001	0.00000E+000	1.43445E+000	-8.94214E-005	12	...........	-327.56
	1863	932	1.42360E+000	5.41984E-001	0.00000E+000	1.42545E+000	-9.30881E-005	12	...........	-327.56
	1872	936.5	1.41471E+000	5.21193E-001	0.00000E+000	1.41645E+000	-9.21214E-005	12	...........	-327.56
	1881	941	1.40568E+000	5.01563E-001	0.00000E+000	1.40745E+000	-9.71548E-005	12	...........	-327.56
	1890	945.5	1.39672E+000	4.82844E-001	0.00000E+000	1.39845E+000	-9.46881E-005	12	...........	-327.56
	1899	950	1.38776E+000	4.63170E-001	0.00000E+000	1.38945E+000	-9.20881E-005	12	...........	-327.56
	1908	954.5	1.37873E+000	4.43403E-001	0.00000E+000	1.38045E+000	-9.17881E-005	12	...........	-327.56
	1917	959	1.36975E+000	4.23305E-001	0.00000E+000	1.37145E+000	-9.22881E-005	12	...........	-327.56
	1926	963.5	1.36080E+000	4.03972E-001	0.00000E+000	1.36245E+000	-9.10881E-005	12	...........	-327.56
	1935	968	1.35184E+000	3.85120E-001	0.00000E+000	1.35345E+000	-9.24881E-005	12	...........	-327.56
	1944	972.5	1.34286E+000	3.66091E-001	0.00000E+000	1.34445E+000	-9.41548E-005	12	...........	-327.56
	1953	977	1.33386E+000	3.47514E-001	0.00000E+000	1.33545E+000	-9.32881E-005	12	...........	-327.56
	1962	981.5	1.32487E+000	3.29015E-001	0.00000E+000	1.32645E+000	-9.41548E-005	12	...........	-327.56
	1971	986	1.31595E+000	3.10624E-001	0.00000E+000	1.31745E+000	-9.34881E-005	12	...........	-327.56
	1980	990.5	1.30696E+000	2.92449E-001	0.00000E+000	1.30845E+000	-9.44214E-005	12	...........	-327.56
	1989	995	1.29792E+000	2.74196E-001	0.00000E+000	1.29945E+000	-9.23548E-005	12	...........	-327.56
	1998	999.5	1.28900E+000	2.56812E-001	0.00000E+000	1.29045E+000	-9.41881E-005	12	...........	-327.56
	2007	1004	1.27997E+000	2.39366E-001	0.00000E+000	1.28145E+000	-9.18214E-005	12	...........	-327.56
	2016	1008.5	1.27073E+000	2.21751E-001	0.00000E+000	1.27245E+000	-9.08214E-005	11	...........	-327.56
	2025	1013	1.26183E+000	2.05711E-001	0.00000E+000	1.26345E+000	-9.18214E-005	11	...........	-327.56
	2034	1017.5	1.25280E+000	1.90312E-001	0.00000E+000	1.25445E+000	-9.38214E-005	11	...........	-327.56
	2043	1022	1.24380E+000	1.75729E-001	0.00000E+000	1.24545E+000	-9.29214E-005	11	...........	-327.56
	2052	1026.5	1.23491E+000	1.60556E-001	0.00000E+000	1.23645E+000	-9.17214E-005	11	...........	-327.56
	2061	1031	1.22589E+000	1.47279E-001	0.00000E+000	1.22745E+000	-8.94214E-005	11	...........	-327.56
	2070	1035.5	1.21686E+000	1.35193E-001	0.00000E+000	1.21845E+000	-9.45881E-005	11	...........	-327.56
	2079	1040	1.20797E+000	1.23967E-001	0.00000E+000	1.20945E+000	-9.43214E-005	11	...........	-327.56
	2088	1044.5	1.19897E+000	1.12641E-001	0.00000E+000	1.20045E+000	-9.20548E-005	11	...........	-327.56
	2097	1049	1.19002E+000	1.02368E-001	0.00000E+000	1.19145E+000	-9.14881E-005	11	...........	-327.56
	2106	1053.5	1.18105E+000	9.34175E-002	0.00000E+000	1.18245E+000	-9.02548E-005	11	...........	-327.56
	2115	1058	1.17202E+000	8.47265E-002	0.00000E+000	1.17345E+000	-9.45548E-005	11	...........	-327.56
	2124	1062.5	1.16311E+000	7.69125E-002	0.00000E+000	1.16445E+000	-9.28214E-005	11	...........	-327.56
	2133	1067	1.15411E+000	6.96609E-002	0.00000E+000	1.15545E+000	-9.37214E-005	11	...........	-327.56
	2142	1071.5	1.14508E+000	6.27970E-002	0.00000E+000	1.14645E+000	-9.10881E-005	11	...........	-327.56
	2151	1076	1.13617E+000	5.66382E-002	0.00000E+000	1.13745E+000	-9.03214E-005	11	...........	-327.56
	2160	1080.5	1.12715E+000	5.10529E-002	0.00000E+000	1.12845E+000	-8.94548E-005	11	...........	-327.56
	2169	1085	1.11824E+000	4.59414E-002	0.00000E+000	1.11945E+000	-9.48548E-005	11	...........	-327.56
	2178	1089.5	1.10924E+000	4.12496E-002	0.00000E+000	1.11045E+000	-9.47881E-005	11	...........	-327.56
	2187	1094	1.10021E+000	3.69329E-002	0.00000E+000	1.10145E+000	-9.41881E-005	11	...........	-327.56
	2196	1098.5	1.09116E+000	3.30104E-002	0.00000E+000	1.09245E+000	-9.37881E-005	11	...........	-327.56
	2205	1103	1.08228E+000	2.96006E-002	0.00000E+000	1.08345E+000	-9.36214E-005	11	...........	-327.56
	2214	1107.5	1.07325E+000	2.66621E-002	0.00000E+000	1.07445E+000	-9.48214E-005	11	...........	-327.56
	2223	1112	1.06420E+000	2.42969E-002	0.00000E+000	1.06545E+000	-9.43214E-005	11	...........	-327.56
	2232	1116.5	1.05506E+000	2.22546E-002	0.00000E+000	1.05645E+000	-9.02214E-005	10	...........	-327.56
	2241	1121	1.04603E+000	2.05432E-002	0.00000E+000	1.04745E+000	-8.81881E-005	10	...........	-327.56
	2250	1125.5	1.03701E+000	1.92928E-002	0.00000E+000	1.03845E+000	-8.86214E-005	10	...........	-327.56
	2259	1130	1.02812E+000	1.82026E-002	0.00000E+000	1.02945E+000	-9.04881E-005	10	...........	-327.56
	2268	1134.5	1.01914E+000	1.75116E-002	0.00000E+000	1.02045E+000	-9.13548E-005	10	...........	-327.56
	2277	1139	1.01018E+000	1.69160E-002	0.00000E+000	1.01145E+000	-9.15548E-005	10	...........	-327.56
	2286	1143.5	1.00116E+000	1.64304E-002	0.00000E+000	1.00245E+000	-8.94214E-005	10	...........	-327.56
	2295	1148	9.92131E-001	1.60329E-002	0.00000E+000	9.93450E-001	-9.12214E-005	10	...........	-327.56
	2304	1152.5	9.83205E-001	1.56755E-002	0.00000E+000	9.84450E-001	-8.93548E-005	10	...........	-327.56
	2313	1157	9.74231E-001	1.53667E-002	0.00000E+000	9.75450E-001	-9.44548E-005	10	...........	-327.56
	2322	1161.5	9.65171E-001	1.50948E-002	0.00000E+000	9.66450E-001	-8.94548E-005	10	...........	-327.56
	2331	1166	9.56243E-001	1.49235E-002	0.00000E+000	9.57450E-001	-9.32214E-005	10	...........	-327.56
	2340	1170.5	9.47186E-001	1.46824E-002	0.00000E+000	9.48450E-001	-9.21548E-005	10	...........	-327.56
	2349	1175	9.38196E-001	1.45366E-002	0.00000E+000	9.39450E-001	-9.16214E-005	10	...........	-327.56
	2358	1179.5	9.29265E-001	1.43704E-002	0.00000E+000	9.30450E-001	-9.20214E-005	10	...........	-327.56
	2367	1184	9.20271E-001	1.42818E-002	0.00000E+000	9.21450E-001	-9.24548E-005	10	...........	-327.56
	2376	1188.5	9.11232E-001	1.41157E-002	0.00000E+000	9.12450E-001	-9.56214E-005	10	...........	-327.56
	2385	1193	9.02324E-001	1.40731E-002	0.00000E+000	9.03450E-001	-9.24881E-005	10	...........	-327.56
	2394	1197.5	8.93284E-001	1.39832E-002	0.00000E+000	8.94450E-001	-9.34881E-005	10	...........	-327.56
	2403	1202	8.84243E-001	1.38648E-002	0.00000E+000	8.85450E-001	-9.69881E-005	10	...........	-327.56
	2412	1206.5	8.75362E-001	1.37960E-002	0.00000E+000	8.76450E-001	-9.30548E-005	10	...........	-327.56
	2421	1211	8.66311E-001	1.37554E-002	0.00000E+000	8.67450E-001	-9.08881E-005	10	...........	-327.56
	2430	1215.5	8.57368E-001	1.36825E-002	0.00000E+000	8.58450E-001	-8.71881E-005	10	...........	-327.56
	2439	1220	8.48367E-001	1.35506E-002	0.00000E+000	8.49450E-001	-9.39214E-005	10	...........	-327.56
	2448	1224.5	8.39338E-001	1.34865E-002	0.00000E+000	8.40450E-001	-9.69881E-005	10	...........	-327.56
	2457	1229	8.30374E-001	1.34498E-002	0.00000E+000	8.31450E-001	-9.27881E-005	10	...........	-327.56
	2466	1233.5	8.21386E-001	1.34801E-002	0.00000E+000	8.22450E-001	-9.20214E-005	10	...........	-327.56
	2475	1238	8.12369E-001	1.34656E-002	0.00000E+000	8.13450E-001	-8.83214E-005	10	...........	-327.56
	2484	1242.5	8.03451E-001	1.35203E-002	0.00000E+000	8.04450E-001	-9.17548E-005	10	...........	-327.56
	2493	1247	7.94402E-001	1.36836E-002	0.00000E+000	7.95450E-001	-8.85548E-005	10	...........	-327.56
	2502	1251.5	7.85446E-001	1.37783E-002	0.00000E+000	7.86450E-001	-9.27548E-005	10	...........	-327.56
	2511	1256	7.76455E-001	1.38472E-002	0.00000E+000	7.77450E-001	-9.13548E-005	10	...........	-327.56
	2520	1260.5	7.67426E-001	1.38248E-002	0.00000E+000	7.68450E-001	-9.12214E-005	10	...........	-327.56
	2529	1265	7.58363E-001	1.37604E-002	0.00000E+000	7.59450E-001	-9.40214E-005	10	...........	-327.56
	2538	1269.5	7.49480E-001	1.36204E-002	0.00000E+000	7.50450E-001	-8.75548E-005	10	...........	-327.56
	2547	1274	7.40431E-001	1.35414E-002	0.00000E+000	7.41450E-001	-9.24548E-005	10	...........	-327.56
	2556	1278.5	7.31398E-001	1.34168E-002	0.00000E+000	7.32450E-001	-9.26214E-005	10	...........	-327.56
	2565	1283	7.22494E-001	1.33342E-002	0.00000E+000	7.23450E-001	-8.79548E-005	10	...........	-327.56
	2574	1287.5	7.13521E-001	1.32351E-002	0.00000E+000	7.14450E-001	-9.51214E-005	10	...........	-327.56
	2583	1292	7.04454E-001	1.31257E-002	0.00000E+000	7.05450E-001	-8.94881E-005	10	...........	-327.56
	2592	1296.5	6.95547E-001	1.30046E-002	0.00000E+000	6.96450E-001	-9.46214E-005	10	...........	-327.56
	2601	1301	6.86520E-001	1.28984E-002	0.00000E+000	6.87450E-001	-9.55548E-005	10	...........	-327.56
	2610	1305.5	6.77564E-001	1.28125E-002	0.00000E+000	6.78450E-001	-9.18548E-005	10	...........	-327.56
	2619	1310	6.68578E-001	1.27660E-002	0.00000E+000	6.69450E-001	-8.93548E-005	10	...........	-327.56
	2628	1314.5	6.59527E-001	1.26530E-002	0.00000E+000	6.60450E-001	-9.08881E-005	10	...........	-327.56
	2637	1319	6.50593E-001	1.25648E-002	0.00000E+000	6.51450E-001	-9.34214E-005	10	...........	-327.56
	2646	1323.5	6.41577E-001	1.24658E-002	0.00000E+000	6.42450E-001	-9.62881E-005	10	...........	-327.56
	2655	1328	6.32556E-001	1.23939E-002	0.00000E+000	6.33450E-001	-9.45214E-005	10	...........	-327.56
	2664	1332.5	6.23606E-001	1.23603E-002	0.00000E+000	6.24450E-001	-9.05214E-005	10	...........	-327.56
	2673	1337	6.14589E-001	1.23279E-002	0.00000E+000	6.15450E-001	-9.17548E-005	10	...........	-327.56
	2682	1341.5	6.05582E-001	1.22302E-002	0.00000E+000	6.06450E-001	-9.13881E-005	10	...........	-327.56
	2691	1346	5.96669E-001	1.21266E-002	0.00000E+000	5.97450E-001	-9.52214E-005	10	...........	-327.56
	2700	1350.5	5.87612E-001	1.20567E-002	0.00000E+000	5.88450E-001	-9.11214E-005	10	...........	-327.56
	2709	1355	5.78593E-001	1.19335E-002	0.00000E+000	5.79450E-001	-8.90548E-005	10	...........	-327.56
	2718	1359.5	5.69653E-001	1.18030E-002	0.00000E+000	5.70450E-001	-9.21548E-005	10	...........	-327.56
	2727	1364	5.60639E-001	1.16569E-002	0.00000E+000	5.61450E-001	-9.17881E-005	10	...........	-327.56
	2736	1368.5	5.51594E-001	1.15057E-002	0.00000E+000	5.52450E-001	-9.32548E-005	10	...........	-327.56
	2745	1373	5.42706E-001	1.13108E-002	0.00000E+000	5.43450E-001	-8.99214E-005	10	...........	-327.56
	2754	1377.5	5.33642E-001	1.11262E-002	0.00000E+000	5.34450E-001	-9.32881E-005	10	...........	-327.56
	2763	1382	5.24710E-001	1.08757E-002	0.00000E+000	5.25450E-001	-8.96214E-005	10	...........	-327.56
	2772	1386.5	5.15714E-001	1.06284E-002	0.00000E+000	5.16450E-001	-8.90214E-005	10	...........	-327.56
	2781	1391	5.06725E-001	1.03846E-002	0.00000E+000	5.07450E-001	-9.23548E-005	10	...........	-327.56
	2790	1395.5	4.97790E-001	1.01472E-002	0.00000E+000	4.98450E-001	-9.26881E-005	10	...........	-327.56
	2799	1400	4.88779E-001	9.89027E-003	0.00000E+000	4.89450E-001	-9.25881E-005	10	...........	-327.56
	2808	1404.5	4.79786E-001	9.62295E-003	0.00000E+000	4.80450E-001	-9.07548E-005	10	...........	-327.56
	2817	1409	4.70811E-001	9.37912E-003	0.00000E+000	4.71450E-001	-9.30548E-005	10	...........	-327.56
	2826	1413.5	4.61800E-001	8.99545E-003	0.00000E+000	4.62450E-001	-9.16881E-005	10	...........	-327.56
	2835	1418	4.52762E-001	8.69133E-003	0.00000E+000	4.53450E-001	-9.37548E-005	10	...........	-327.56
	2844	1422.5	4.43860E-001	8.37804E-003	0.00000E+000	4.44450E-001	-9.37881E-005	10	...........	-327.56
	2853	1427	4.34801E-001	8.02134E-003	0.00000E+000	4.35450E-001	-9.22881E-005	10	...........	-327.56
	2862	1431.5	4.25797E-001	7.73960E-003	0.00000E+000	4.26450E-001	-9.61214E-005	10	...........	-327.56
	2871	1436	4.16864E-001	7.35833E-003	0.00000E+000	4.17450E-001	-9.67881E-005	10	...........	-327.56
	2880	1440.5	4.07876E-001	6.97958E-003	0.00000E+000	4.08450E-001	-9.32214E-005	10	...........	-327.56
	2889	1445	3.98798E-001	6.63858E-003	0.00000E+000	3.99450E-001	-9.53548E-005	10	...........	-327.56
	2898	1449.5	3.89883E-001	6.22163E-003	0.00000E+000	3.90450E-001	-8.94881E-005	10	...........	-327.56
	2907	1454	3.80850E-001	5.82847E-003	0.00000E+000	3.81450E-001	-9.05881E-005	10	...........	-327.56
	2916	1458.5	3.71829E-001	5.43190E-003	0.00000E+000	3.72450E-001	-9.12214E-005	10	...........	-327.56
	2925	1463	3.62931E-001	5.01553E-003	0.00000E+000	3.63450E-001	-9.34214E-005	10	...........	-327.56
	2934	1467.5	3.53898E-001	4.59902E-003	0.00000E+000	3.54450E-001	-9.09548E-005	10	...........	-327.56
	2943	1472	3.44953E-001	4.09345E-003	0.00000E+000	3.45450E-001	-9.57214E-005	10	...........	-327.56
	2952	1476.5	3.35961E-001	3.65693E-003	0.00000E+000	3.36450E-001	-9.09881E-005	10	...........	-327.56
	2961	1481	3.26934E-001	3.16975E-003	0.00000E+000	3.27450E-001	-9.20214E-005	10	...........	-327.56
	2970	1485.5	3.17984E-001	2.57351E-003	0.00000E+000	3.18450E-001	-9.34214E-005	10	...........	-327.56
	2979	1490	3.08757E-001	1.96770E-003	0.00000E+000	3.09450E-001	-9.28214E-005	9	...........	-327.56
	2988	1494.5	2.99854E-001	1.38861E-003	0.00000E+000	3.00450E-001	-9.54881E-005	9	...........	-327.56
	2997	1499	2.91010E-001	7.52560E-004	0.00000E+000	2.91450E-001	-9.43548E-005	9	...........	-327.56
	3006	1503.5	2.81939E-001	9.80378E-005	0.00000E+000	2.82450E-001	-8.78881E-005	8	...........	-327.56
	3015	1508	2.73427E-001	-2.65972E-004	0.00000E+000	2.73450E-001	-7.92214E-005	8	...........	-327.56
	3024	1512.5	2.64169E-001	-4.81085E-004	0.00000E+000	2.64450E-001	-9.56548E-005	9	...........	-327.56
	3033	1517	2.55156E-001	-6.37364E-004	0.00000E+000	2.55450E-001	-9.50881E-005	9	...........	-327.56
	3042	1521.5	2.46210E-001	-8.68620E-004	0.00000E+000	2.46450E-001	-9.62881E-005	9	...........	-327.56
	3051	1526	2.37252E-001	-1.03757E-003	0.00000E+000	2.37450E-001	-9.43548E-005	9	...........	-327.56
	3060	1530.5	2.28232E-001	-1.19688E-003	0.00000E+000	2.28450E-001	-9.38548E-005	9	...........	-327.56
	3069	1535	2.19188E-001	-1.33799E-003	0.00000E+000	2.19450E-001	-9.98214E-005	9	...........	-327.56
	3078	1539.5	2.10325E-001	-1.47631E-003	0.00000E+000	2.10450E-001	-9.12881E-005	9	...........	-327.56
	3087	1544	2.01332E-001	-1.60696E-003	0.00000E+000	2.01450E-001	-9.31881E-005	9	...........	-327.56
	3096	1548.5	1.92289E-001	-1.74074E-003	0.00000E+000	1.92450E-001	-9.11214E-005	9	...........	-327.56
	3105	1553	1.83409E-001	-1.93610E-003	0.00000E+000	1.83450E-001	-9.33214E-005	9	...........	-327.56
	3114	1557.5	1.74381E-001	-2.19517E-003	0.00000E+000	1.74450E-001	-9.14548E-005	9	...........	-327.56
	3123	1562	1.65487E-001	-2.45551E-003	0.00000E+000	1.65450E-001	-8.80881E-005	9	...........	-327.56
	3132	1566.5	1.56219E-001	-2.84759E-003	0.00000E+000	1.56450E-001	-9.34548E-005	10	...........	-327.56
	3141	1571	1.47174E-001	-3.22826E-003	0.00000E+000	1.47450E-001	-9.13548E-005	10	...........	-327.56
	3150	1575.5	1.38260E-001	-3.61225E-003	0.00000E+000	1.38450E-001	-8.88214E-005	10	...........	-327.56
	3159	1580	1.29232E-001	-3.95675E-003	0.00000E+000	1.29450E-001	-9.56548E-005	10	...........	-327.56
	3168	1584.5	1.20221E-001	-4.30317E-003	0.00000E+000	1.20450E-001	-9.45548E-005	10	...........	-327.56
	3177	1589	1.11281E-001	-4.65744E-003	0.00000E+000	1.11450E-001	-9.37548E-005	10	...........	-327.56
	3186	1593.5	1.02319E-001	-4.98113E-003	0.00000E+000	1.02450E-001	-9.13548E-005	10	...........	-327.56
	3195	1598	9.32563E-002	-5.24170E-003	0.00000E+000	9.34500E-002	-9.07214E-005	10	...........	-327.56
	3204	1602.5	8.43469E-002	-5.48883E-003	0.00000E+000	8.44500E-002	-9.40881E-005	10	...........	-327.56
	3213	1607	7.53258E-002	-5.74587E-003	0.00000E+000	7.54500E-002	-9.41214E-005	10	...........	-327.56
	3222	1611.5	6.62978E-002	-5.99710E-003	0.00000E+000	6.64500E-002	-9.04881E-005	10	...........	-327.56
	3231	1616	5.73856E-002	-6.19958E-003	0.00000E+000	5.74500E-002	-8.84214E-005	10	...........	-327.56
	3240	1620.5	4.83474E-002	-6.39853E-003	0.00000E+000	4.84500E-002	-9.21548E-005	10	...........	-327.56
	3249	1625	3.93117E-002	-6.55906E-003	0.00000E+000	3.94500E-002	-9.43881E-005	10	...........	-327.56
	3258	1629.5	3.04002E-002	-6.78428E-003	0.00000E+000	3.04500E-002	-9.60881E-005	10	...........	-327.56
	3267	1634	2.13715E-002	-6.96921E-003	0.00000E+000	2.14500E-002	-9.39548E-005	10	...........	-327.56
	3276	1638.5	1.23866E-002	-7.12734E-003	0.00000E+000	1.24500E-002	-9.38214E-005	10	...........	-327.56
	3285	1643	3.41470E-003	-7.31469E-003	0.00000E+000	3.45004E-003	-8.95548E-005	10	...........	-327.56
	3294	1647.5	-5.39961E-003	-7.49367E-003	0.00000E+000	-5.54997E-003	-9.09881E-005	10	...........	-327.56
	3303	1652	-1.43569E-002	-7.65296E-003	0.00000E+000	-1.45500E-002	-9.33214E-005	10	...........	-327.56
	3312	1656.5	-2.33542E-002	-7.80415E-003	0.00000E+000	-2.35500E-002	-9.01881E-005	10	...........	-327.56
	3321	1661	-3.24024E-002	-7.97986E-003	0.00000E+000	-3.25500E-002	-8.93214E-005	10	...........	-327.56
	3330	1665.5	-4.13216E-002	-8.17466E-003	0.00000E+000	-4.15500E-002	-8.92548E-005	10	...........	-327.56
	3339	1670	-5.03710E-002	-8.34696E-003	0.00000E+000	-5.05500E-002	-9.15214E-005	10	...........	-327.56
	3348	1674.5	-5.93000E-002	-8.55127E-003	0.00000E+000	-5.95500E-002	-9.65214E-005	10	...........	-327.56
[...]
	11207	5604	5.18277E-001	9.43989E-002	0.00000E+000	5.19000E-001	-9.64548E-005	11	...........	-327.56
	11213	5607	5.24245E-001	8.88682E-002	0.00000E+000	5.25000E-001	-9.72548E-005	11	...........	-327.56
	11219	5610	5.30203E-001	8.71707E-002	0.00000E+000	5.31000E-001	-9.69548E-005	11	...........	-327.56
	11225	5613	5.36224E-001	8.56066E-002	0.00000E+000	5.37000E-001	-9.66548E-005	11	...........	-327.56
	11231	5616	5.42281E-001	8.33795E-002	0.00000E+000	5.43000E-001	-9.51881E-005	11	...........	-327.56
	11237	5619	5.48251E-001	8.14895E-002	0.00000E+000	5.49000E-001	-9.92214E-005	11	...........	-327.56
	11243	5622	5.54200E-001	7.83928E-002	0.00000E+000	5.55000E-001	-9.67881E-005	11	...........	-327.56
	11249	5625	5.60223E-001	7.70017E-002	0.00000E+000	5.61000E-001	-9.24548E-005	11	...........	-327.56
	11255	5628	5.66257E-001	7.58323E-002	0.00000E+000	5.67000E-001	-9.46881E-005	11	...........	-327.56
	11261	5631	5.72247E-001	7.41686E-002	0.00000E+000	5.73000E-001	-9.53214E-005	11	...........	-327.56
	11267	5634	5.78175E-001	7.18657E-002	0.00000E+000	5.79000E-001	-9.68548E-005	11	...........	-327.56
	11273	5637	5.84212E-001	7.06779E-002	0.00000E+000	5.85000E-001	-9.76548E-005	11	...........	-327.56
	11279	5640	5.90279E-001	6.82154E-002	0.00000E+000	5.91000E-001	-9.89214E-005	11	...........	-327.56
	11285	5643	5.96246E-001	6.74727E-002	0.00000E+000	5.97000E-001	-9.61214E-005	11	...........	-327.56
	11291	5646	6.02174E-001	6.64462E-002	0.00000E+000	6.03000E-001	-9.37881E-005	11	...........	-327.56
	11297	5649	6.08199E-001	6.43821E-002	0.00000E+000	6.09000E-001	-1.00621E-004	11	...........	-327.56
	11303	5652	6.14245E-001	6.29033E-002	0.00000E+000	6.15000E-001	-9.52881E-005	11	...........	-327.56
	11309	5655	6.20224E-001	6.23804E-002	0.00000E+000	6.21000E-001	-9.32214E-005	11	...........	-327.56
	11315	5658	6.26234E-001	6.01111E-002	0.00000E+000	6.27000E-001	-9.68548E-005	11	...........	-327.56
	11321	5661	6.32171E-001	5.88734E-002	0.00000E+000	6.33000E-001	-9.91548E-005	11	...........	-327.56
	11327	5664	6.38207E-001	5.81345E-002	0.00000E+000	6.39000E-001	-9.70881E-005	11	...........	-327.56
	11333	5667	6.44214E-001	5.69753E-002	0.00000E+000	6.45000E-001	-9.88548E-005	11	...........	-327.56
	11339	5670	6.50233E-001	5.57136E-002	0.00000E+000	6.51000E-001	-9.34881E-005	11	...........	-327.56
	11345	5673	6.56135E-001	5.44880E-002	0.00000E+000	6.57000E-001	-9.68214E-005	11	...........	-327.56
	11351	5676	6.62198E-001	5.42266E-002	0.00000E+000	6.63000E-001	-9.54881E-005	11	...........	-327.56
	11357	5679	6.68205E-001	5.33476E-002	0.00000E+000	6.69000E-001	-9.87881E-005	11	...........	-327.56
	11363	5682	6.74217E-001	5.26922E-002	0.00000E+000	6.75000E-001	-9.33548E-005	11	...........	-327.56
	11369	5685	6.80093E-001	5.20103E-002	0.00000E+000	6.81000E-001	-9.88548E-005	11	...........	-327.56
	11375	5688	6.86197E-001	5.15737E-002	0.00000E+000	6.87000E-001	-1.01988E-004	11	...........	-327.56
	11381	5691	6.92175E-001	5.08999E-002	0.00000E+000	6.93000E-001	-9.65548E-005	11	...........	-327.56
	11387	5694	6.98208E-001	5.04485E-002	0.00000E+000	6.99000E-001	-9.39214E-005	11	...........	-327.56
	11393	5697	7.04140E-001	5.00179E-002	0.00000E+000	7.05000E-001	-9.41881E-005	11	...........	-327.56
	11399	5700	7.10185E-001	4.95075E-002	0.00000E+000	7.11000E-001	-9.45214E-005	11	...........	-327.56
	11405	5703	7.16159E-001	4.93114E-002	0.00000E+000	7.17000E-001	-9.46214E-005	11	...........	-327.56
	11411	5706	7.22155E-001	4.86497E-002	0.00000E+000	7.23000E-001	-9.37214E-005	11	...........	-327.56
	11417	5709	7.28140E-001	4.83555E-002	0.00000E+000	7.29000E-001	-9.76548E-005	11	...........	-327.56
	11423	5712	7.34064E-001	4.81542E-002	0.00000E+000	7.35000E-001	-9.71548E-005	11	...........	-327.56
	11429	5715	7.40092E-001	4.78077E-002	0.00000E+000	7.41000E-001	-9.71548E-005	11	...........	-327.56
	11435	5718	7.46130E-001	4.75652E-002	0.00000E+000	7.47000E-001	-9.46548E-005	11	...........	-327.56
	11441	5721	7.52151E-001	4.74312E-002	0.00000E+000	7.53000E-001	-9.44214E-005	11	...........	-327.56
	11447	5724	7.58050E-001	4.72054E-002	0.00000E+000	7.59000E-001	-9.57214E-005	11	...........	-327.56
	11453	5727	7.64063E-001	4.66696E-002	0.00000E+000	7.65000E-001	-9.79881E-005	11	...........	-327.56
	11459	5730	7.70096E-001	4.67513E-002	0.00000E+000	7.71000E-001	-9.70881E-005	11	...........	-327.56
	11465	5733	7.76108E-001	4.64625E-002	0.00000E+000	7.77000E-001	-9.90548E-005	11	...........	-327.56
	11471	5736	7.82016E-001	4.63592E-002	0.00000E+000	7.83000E-001	-9.58881E-005	11	...........	-327.56
	11477	5739	7.88041E-001	4.60404E-002	0.00000E+000	7.89000E-001	-9.71214E-005	11	...........	-327.56
	11483	5742	7.94060E-001	4.58501E-002	0.00000E+000	7.95000E-001	-9.64214E-005	11	...........	-327.56
	11489	5745	8.00100E-001	4.56531E-002	0.00000E+000	8.01000E-001	-9.58548E-005	11	...........	-327.56
	11495	5748	8.06088E-001	4.53628E-002	0.00000E+000	8.07000E-001	-9.41214E-005	11	...........	-327.56
	11501	5751	8.12021E-001	4.51881E-002	0.00000E+000	8.13000E-001	-9.57548E-005	11	...........	-327.56
	11507	5754	8.18038E-001	4.50477E-002	0.00000E+000	8.19000E-001	-9.47214E-005	11	...........	-327.56
	11513	5757	8.24015E-001	4.47905E-002	0.00000E+000	8.25000E-001	-9.88881E-005	11	...........	-327.56
	11519	5760	8.30036E-001	4.45918E-002	0.00000E+000	8.31000E-001	-9.36881E-005	11	...........	-327.56
	11525	5763	8.35968E-001	4.45132E-002	0.00000E+000	8.37000E-001	-9.56881E-005	11	...........	-327.56
	11531	5766	8.41989E-001	4.43392E-002	0.00000E+000	8.43000E-001	-9.43548E-005	11	...........	-327.56
	11537	5769	8.48016E-001	4.40151E-002	0.00000E+000	8.49000E-001	-9.80881E-005	11	...........	-327.56
	11543	5772	8.54030E-001	4.39924E-002	0.00000E+000	8.55000E-001	-9.33881E-005	11	...........	-327.56
	11549	5775	8.59949E-001	4.35891E-002	0.00000E+000	8.61000E-001	-9.43548E-005	11	...........	-327.56
	11555	5778	8.65969E-001	4.34135E-002	0.00000E+000	8.67000E-001	-9.75548E-005	11	...........	-327.56
	11561	5781	8.71991E-001	4.32078E-002	0.00000E+000	8.73000E-001	-9.88881E-005	11	...........	-327.56
	11567	5784	8.78010E-001	4.30655E-002	0.00000E+000	8.79000E-001	-1.00488E-004	11	...........	-327.56
	11573	5787	8.83911E-001	4.28374E-002	0.00000E+000	8.85000E-001	-9.68214E-005	11	...........	-327.56
	11579	5790	8.89941E-001	4.26917E-002	0.00000E+000	8.91000E-001	-9.92548E-005	11	...........	-327.56
	11585	5793	8.95957E-001	4.25378E-002	0.00000E+000	8.97000E-001	-9.68881E-005	11	...........	-327.56
	11591	5796	9.01990E-001	4.23072E-002	0.00000E+000	9.03000E-001	-9.60214E-005	11	...........	-327.56
	11597	5799	9.07984E-001	4.21418E-002	0.00000E+000	9.09000E-001	-9.71548E-005	11	...........	-327.56
	11603	5802	9.13934E-001	4.19118E-002	0.00000E+000	9.15000E-001	-9.53214E-005	11	...........	-327.56
	11609	5805	9.19950E-001	4.17006E-002	0.00000E+000	9.21000E-001	-9.65214E-005	11	...........	-327.56
	11615	5808	9.25922E-001	4.15293E-002	0.00000E+000	9.27000E-001	-9.82548E-005	11	...........	-327.56
	11621	5811	9.31941E-001	4.13123E-002	0.00000E+000	9.33000E-001	-9.37214E-005	11	...........	-327.56
	11627	5814	9.37878E-001	4.11571E-002	0.00000E+000	9.39000E-001	-9.68881E-005	11	...........	-327.56
	11633	5817	9.43920E-001	4.11085E-002	0.00000E+000	9.45000E-001	-9.60214E-005	11	...........	-327.56
	11639	5820	9.49901E-001	4.09751E-002	0.00000E+000	9.51000E-001	-9.46214E-005	11	...........	-327.56
	11645	5823	9.55933E-001	4.09749E-002	0.00000E+000	9.57000E-001	-9.60214E-005	11	...........	-327.56
	11651	5826	9.61832E-001	4.10474E-002	0.00000E+000	9.63000E-001	-9.49881E-005	11	...........	-327.56
	11657	5829	9.67920E-001	4.36923E-002	0.00000E+000	9.69000E-001	-9.97881E-005	11	...........	-327.56
	11663	5832	9.73884E-001	4.18869E-002	0.00000E+000	9.75000E-001	-9.69214E-005	11	...........	-327.56
	11669	5835	9.79901E-001	4.24176E-002	0.00000E+000	9.81000E-001	-9.08548E-005	11	...........	-327.56
	11675	5838	9.85792E-001	5.69306E-002	0.00000E+000	9.87000E-001	-9.64548E-005	11	...........	-327.56
	11681	5841	9.91894E-001	4.41112E-002	0.00000E+000	9.93000E-001	-9.93881E-005	11	...........	-327.56
	11687	5844	9.97839E-001	4.48510E-002	0.00000E+000	9.99000E-001	-9.66214E-005	11	...........	-327.56
	11693	5847	1.00389E+000	4.55993E-002	0.00000E+000	1.00500E+000	-9.69214E-005	11	...........	-327.56
	11699	5850	1.00988E+000	4.60294E-002	0.00000E+000	1.01100E+000	-9.51881E-005	11	...........	-327.56
	11705	5853	1.01589E+000	4.67573E-002	0.00000E+000	1.01700E+000	-9.40214E-005	11	...........	-327.56
	11711	5856	1.02183E+000	4.75973E-002	0.00000E+000	1.02300E+000	-9.61214E-005	11	...........	-327.56
	11717	5859	1.02785E+000	4.84931E-002	0.00000E+000	1.02900E+000	-9.56548E-005	11	...........	-327.56
	11723	5862	1.03385E+000	5.11606E-002	0.00000E+000	1.03500E+000	-9.48548E-005	11	...........	-327.56
	11729	5865	1.03982E+000	5.17240E-002	0.00000E+000	1.04100E+000	-9.83548E-005	11	...........	-327.56
	11735	5868	1.04579E+000	5.24351E-002	0.00000E+000	1.04700E+000	-9.65548E-005	11	...........	-327.56
	11741	5871	1.05182E+000	5.33493E-002	0.00000E+000	1.05300E+000	-9.66548E-005	11	...........	-327.56
	11747	5874	1.05783E+000	5.43542E-002	0.00000E+000	1.05900E+000	-9.75548E-005	11	...........	-327.56
	11753	5877	1.06379E+000	5.55153E-002	0.00000E+000	1.06500E+000	-9.79548E-005	11	...........	-327.56
	11759	5880	1.06977E+000	5.67815E-002	0.00000E+000	1.07100E+000	-9.85548E-005	11	...........	-327.56
	11765	5883	1.07577E+000	5.80196E-002	0.00000E+000	1.07700E+000	-9.56214E-005	11	...........	-327.56
	11771	5886	1.08180E+000	5.94651E-002	0.00000E+000	1.08300E+000	-9.37548E-005	11	...........	-327.56
	11777	5889	1.08779E+000	6.05696E-002	0.00000E+000	1.08900E+000	-9.16881E-005	11	...........	-327.56
	11783	5892	1.09373E+000	6.15704E-002	0.00000E+000	1.09500E+000	-9.18881E-005	11	...........	-327.56
	11789	5895	1.09974E+000	6.37130E-002	0.00000E+000	1.10100E+000	-9.78548E-005	11	...........	-327.56
	11795	5898	1.10577E+000	6.40244E-002	0.00000E+000	1.10700E+000	-9.97548E-005	11	...........	-327.56
	11801	5901	1.11178E+000	6.45287E-002	0.00000E+000	1.11300E+000	-9.52881E-005	11	...........	-327.56
	11807	5904	1.11771E+000	6.48228E-002	0.00000E+000	1.11900E+000	-9.51214E-005	11	...........	-327.56
	11813	5907	1.12373E+000	6.49045E-002	0.00000E+000	1.12500E+000	-9.16881E-005	11	...........	-327.56
	11819	5910	1.12971E+000	6.45324E-002	0.00000E+000	1.13100E+000	-9.48881E-005	11	...........	-327.56
	11825	5913	1.13571E+000	6.41007E-002	0.00000E+000	1.13700E+000	-9.36548E-005	11	...........	-327.56
	11831	5916	1.14162E+000	6.32731E-002	0.00000E+000	1.14300E+000	-9.78881E-005	11	...........	-327.56
	11837	5919	1.14765E+000	6.20239E-002	0.00000E+000	1.14900E+000	-9.53548E-005	11	...........	-327.56
	11843	5922	1.15369E+000	6.03675E-002	0.00000E+000	1.15500E+000	-9.75548E-005	11	...........	-327.56
	11849	5925	1.15971E+000	5.86113E-002	0.00000E+000	1.16100E+000	-9.82548E-005	11	...........	-327.56
	11855	5928	1.16561E+000	5.65535E-002	0.00000E+000	1.16700E+000	-1.00388E-004	11	...........	-327.56
	11861	5931	1.17164E+000	5.42069E-002	0.00000E+000	1.17300E+000	-9.33548E-005	11	...........	-327.56
	11867	5934	1.17765E+000	5.21690E-002	0.00000E+000	1.17900E+000	-9.56548E-005	11	...........	-327.56
	11873	5937	1.18368E+000	5.01699E-002	0.00000E+000	1.18500E+000	-9.26881E-005	11	...........	-327.56
	11879	5940	1.18969E+000	4.93026E-002	0.00000E+000	1.19100E+000	-9.86548E-005	11	...........	-327.56
	11885	5943	1.19564E+000	4.79872E-002	0.00000E+000	1.19700E+000	-9.67881E-005	11	...........	-327.56
	11891	5946	1.20163E+000	4.77246E-002	0.00000E+000	1.20300E+000	-9.88881E-005	11	...........	-327.56
	11897	5949	1.20768E+000	4.81846E-002	0.00000E+000	1.20900E+000	-9.90548E-005	11	...........	-327.56
	11903	5952	1.21367E+000	4.94148E-002	0.00000E+000	1.21500E+000	-9.97881E-005	11	...........	-327.56
	11909	5955	1.21960E+000	5.12969E-002	0.00000E+000	1.22100E+000	-9.59214E-005	11	...........	-327.56
	11915	5958	1.22559E+000	5.40800E-002	0.00000E+000	1.22700E+000	-9.70548E-005	11	...........	-327.56
	11921	5961	1.23164E+000	5.73589E-002	0.00000E+000	1.23300E+000	-9.53881E-005	11	...........	-327.56
	11927	5964	1.23765E+000	6.23317E-002	0.00000E+000	1.23900E+000	-1.01821E-004	11	...........	-327.56
	11933	5967	1.24356E+000	6.70381E-002	0.00000E+000	1.24500E+000	-9.57214E-005	11	...........	-327.56
	11939	5970	1.24957E+000	7.36414E-002	0.00000E+000	1.25100E+000	-9.83548E-005	11	...........	-327.56
	11945	5973	1.25558E+000	7.96915E-002	0.00000E+000	1.25700E+000	-9.66881E-005	11	...........	-327.56
	11951	5976	1.26159E+000	8.69781E-002	0.00000E+000	1.26300E+000	-9.69881E-005	11	...........	-327.56
	11957	5979	1.26747E+000	9.46885E-002	0.00000E+000	1.26900E+000	-9.72214E-005	11	...........	-327.56
	11963	5982	1.27353E+000	1.02945E-001	0.00000E+000	1.27500E+000	-9.62214E-005	11	...........	-327.56
	11969	5985	1.27950E+000	1.11831E-001	0.00000E+000	1.28100E+000	-9.34548E-005	11	...........	-327.56
	11975	5988	1.28551E+000	1.21157E-001	0.00000E+000	1.28700E+000	-9.40548E-005	11	...........	-327.56
	11981	5991	1.29151E+000	1.31230E-001	0.00000E+000	1.29300E+000	-9.77881E-005	11	...........	-327.56
	11987	5994	1.29748E+000	1.40548E-001	0.00000E+000	1.29900E+000	-9.73548E-005	11	...........	-327.56
	11993	5997	1.30342E+000	1.49768E-001	0.00000E+000	1.30500E+000	-9.44548E-005	11	...........	-327.56
	11999	6000	1.30944E+000	1.61839E-001	0.00000E+000	1.31100E+000	-9.36548E-005	11	...........	-327.56
	12005	6003	1.31543E+000	1.74884E-001	0.00000E+000	1.31700E+000	-9.53881E-005	11	...........	-327.56
	12011	6006	1.32134E+000	1.84384E-001	0.00000E+000	1.32300E+000	-9.41881E-005	11	...........	-327.56
	12017	6009	1.32733E+000	1.95346E-001	0.00000E+000	1.32900E+000	-9.76881E-005	11	...........	-327.56
	12023	6012	1.33327E+000	2.09122E-001	0.00000E+000	1.33500E+000	-9.58214E-005	11	...........	-327.56
	12029	6015	1.33926E+000	2.19216E-001	0.00000E+000	1.34100E+000	-9.75548E-005	11	...........	-327.56
	12035	6018	1.34515E+000	2.31044E-001	0.00000E+000	1.34700E+000	-9.47548E-005	11	...........	-327.56
	12041	6021	1.35116E+000	2.43305E-001	0.00000E+000	1.35300E+000	-9.33214E-005	11	...........	-327.56
	12047	6024	1.35718E+000	2.55666E-001	0.00000E+000	1.35900E+000	-9.29881E-005	11	...........	-327.56
	12053	6027	1.36317E+000	2.68350E-001	0.00000E+000	1.36500E+000	-9.60881E-005	11	...........	-327.56
	12059	6030	1.36946E+000	2.81240E-001	0.00000E+000	1.37100E+000	-9.80881E-005	12	...........	-327.56
	12065	6033	1.37540E+000	2.94017E-001	0.00000E+000	1.37700E+000	-9.60881E-005	12	...........	-327.56
	12071	6036	1.38139E+000	3.07970E-001	0.00000E+000	1.38300E+000	-9.83881E-005	12	...........	-327.56
	12077	6039	1.38742E+000	3.20452E-001	0.00000E+000	1.38900E+000	-9.75548E-005	12	...........	-327.56
	12083	6042	1.39342E+000	3.33949E-001	0.00000E+000	1.39500E+000	-9.97214E-005	12	...........	-327.56
	12089	6045	1.39933E+000	3.47086E-001	0.00000E+000	1.40100E+000	-9.84214E-005	12	...........	-327.56
	12095	6048	1.40534E+000	3.60647E-001	0.00000E+000	1.40700E+000	-9.64214E-005	12	...........	-327.56
	12101	6051	1.41137E+000	3.73757E-001	0.00000E+000	1.41300E+000	-9.72881E-005	12	...........	-327.56
	12107	6054	1.41737E+000	3.86052E-001	0.00000E+000	1.41900E+000	-9.30548E-005	12	...........	-327.56
	12113	6057	1.42325E+000	3.99474E-001	0.00000E+000	1.42500E+000	-9.86548E-005	12	...........	-327.56
	12119	6060	1.42928E+000	4.13905E-001	0.00000E+000	1.43100E+000	-9.56881E-005	12	...........	-327.56
	12125	6063	1.43529E+000	4.25851E-001	0.00000E+000	1.43700E+000	-1.01355E-004	12	...........	-327.56
	12131	6066	1.44130E+000	4.38284E-001	0.00000E+000	1.44300E+000	-9.80548E-005	12	...........	-327.56
	12137	6069	1.44718E+000	4.51523E-001	0.00000E+000	1.44900E+000	-9.76881E-005	12	...........	-327.56
	12143	6072	1.45319E+000	4.64243E-001	0.00000E+000	1.45500E+000	-9.45881E-005	12	...........	-327.56
	12149	6075	1.45920E+000	4.77808E-001	0.00000E+000	1.46100E+000	-9.63881E-005	12	...........	-327.56
	12155	6078	1.46524E+000	4.89492E-001	0.00000E+000	1.46700E+000	-9.78881E-005	12	...........	-327.56
	12161	6081	1.47122E+000	5.03201E-001	0.00000E+000	1.47300E+000	-1.00221E-004	12	...........	-327.56
	12167	6084	1.47716E+000	5.14470E-001	0.00000E+000	1.47900E+000	-1.00021E-004	12	...........	-327.56
	12173	6087	1.48315E+000	5.28736E-001	0.00000E+000	1.48500E+000	-9.97214E-005	12	...........	-327.56
	12179	6090	1.48917E+000	5.44061E-001	0.00000E+000	1.49100E+000	-9.55548E-005	12	...........	-327.56
	12185	6093	1.49518E+000	5.58207E-001	0.00000E+000	1.49700E+000	-9.61548E-005	12	...........	-327.56
	12191	6096	1.50111E+000	5.70217E-001	0.00000E+000	1.50300E+000	-9.16214E-005	12	...........	-327.56
	12197	6099	1.50713E+000	5.86876E-001	0.00000E+000	1.50900E+000	-9.80214E-005	12	...........	-327.56
	12203	6102	1.51312E+000	5.98684E-001	0.00000E+000	1.51500E+000	-9.24548E-005	12	...........	-327.56
	12209	6105	1.51913E+000	6.18278E-001	0.00000E+000	1.52100E+000	-9.55214E-005	12	...........	-327.56
	12215	6108	1.52501E+000	6.31623E-001	0.00000E+000	1.52700E+000	-1.00888E-004	12	...........	-327.56
	12221	6111	1.53110E+000	6.50393E-001	0.00000E+000	1.53300E+000	-1.00588E-004	12	...........	-327.56
	12227	6114	1.53702E+000	6.63167E-001	0.00000E+000	1.53900E+000	-9.62881E-005	12	...........	-327.56
	12233	6117	1.54304E+000	6.77393E-001	0.00000E+000	1.54500E+000	-9.61881E-005	12	...........	-327.56
	12239	6120	1.54896E+000	6.92218E-001	0.00000E+000	1.55100E+000	-1.00688E-004	12	...........	-327.56
	12245	6123	1.55499E+000	7.12872E-001	0.00000E+000	1.55700E+000	-9.32214E-005	12	...........	-327.56
	12251	6126	1.56095E+000	7.24058E-001	0.00000E+000	1.56300E+000	-9.74214E-005	12	...........	-327.56
	12257	6129	1.56699E+000	7.35716E-001	0.00000E+000	1.56900E+000	-9.42214E-005	12	...........	-327.56
	12263	6132	1.57297E+000	7.54270E-001	0.00000E+000	1.57500E+000	-9.67214E-005	12	...........	-327.56
	12269	6135	1.57889E+000	7.70678E-001	0.00000E+000	1.58100E+000	-9.69214E-005	12	...........	-327.56
	12275	6138	1.58490E+000	7.92062E-001	0.00000E+000	1.58700E+000	-9.47881E-005	12	...........	-327.56
	12281	6141	1.59089E+000	8.15282E-001	0.00000E+000	1.59300E+000	-9.55548E-005	12	...........	-327.56
	12287	6144	1.59690E+000	8.32663E-001	0.00000E+000	1.59900E+000	-9.76881E-005	12	...........	-327.56
	12293	6147	1.60280E+000	8.52330E-001	0.00000E+000	1.60500E+000	-9.36881E-005	12	...........	-327.56
	12299	6150	1.60881E+000	8.75525E-001	0.00000E+000	1.61100E+000	-9.75881E-005	12	...........	-327.56
	12305	6153	1.61483E+000	8.88557E-001	0.00000E+000	1.61700E+000	-9.74548E-005	12	...........	-327.56
	12311	6156	1.62083E+000	9.06455E-001	0.00000E+000	1.62300E+000	-9.60548E-005	12	...........	-327.56
	12317	6159	1.62672E+000	9.25466E-001	0.00000E+000	1.62900E+000	-1.02288E-004	12	...........	-327.56
	12323	6162	1.63273E+000	9.46035E-001	0.00000E+000	1.63500E+000	-9.65214E-005	12	...........	-327.56
	12329	6165	1.63875E+000	9.64466E-001	0.00000E+000	1.64100E+000	-9.84548E-005	12	...........	-327.56
	12335	6168	1.64475E+000	9.82423E-001	0.00000E+000	1.64700E+000	-9.60548E-005	12	...........	-327.56
	12341	6171	1.65069E+000	1.00840E+000	0.00000E+000	1.65300E+000	-9.55214E-005	12	...........	-327.56
	12347	6174	1.65665E+000	1.02592E+000	0.00000E+000	1.65900E+000	-9.51881E-005	12	...........	-327.56
	12353	6177	1.66267E+000	1.04372E+000	0.00000E+000	1.66500E+000	-9.67881E-005	12	...........	-327.56
	12359	6180	1.66870E+000	1.07544E+000	0.00000E+000	1.67100E+000	-9.73214E-005	12	...........	-327.56
	12365	6183	1.67466E+000	1.09748E+000	0.00000E+000	1.67700E+000	-9.47548E-005	12	...........	-327.56
	12371	6186	1.68060E+000	1.09759E+000	0.00000E+000	1.68300E+000	-9.43214E-005	12	...........	-327.56
	12377	6189	1.68663E+000	1.11165E+000	0.00000E+000	1.68900E+000	-9.70548E-005	12	...........	-327.56
	12383	6192	1.69264E+000	1.15179E+000	0.00000E+000	1.69500E+000	-9.50881E-005	12	...........	-327.56
	12388	6194.5	1.69761E+000	1.17132E+000	0.00000E+000	1.70000E+000	-1.00588E-004	12	...........	-327.56