File: testing/data/240902_07_MCL13_cswWE_CV2_750C_CO2.DTA
EXPLAIN
TAG	CV
TITLE	LABEL	Cyclic Voltammetry	Test Identifier
DATE	LABEL	9/2/2024	Date
TIME	LABEL	22:32:45	Time
NOTES	NOTES	5	Notes...
	cswWE - carbon steel wire
cspWE - carbon steel plate 2x2 tapered

Carbon steel plate counter electrode
Carbon steel wire reference electrode
PSTAT	PSTAT	REF3000-48128	Potentiostat
VINIT	POTEN	0.00000E+000	T	Initial E (V)
VLIMIT1	POTEN	1.70000E+000	F	Scan Limit 1 (V)
VLIMIT2	POTEN	-1.20000E+000	F	Scan Limit 2 (V)
VFINAL	POTEN	1.70000E+000	F	Final E (V)
SCANRATE	QUANT	2.00000E+000	Scan Rate (mV/s)
STEPSIZE	QUANT	1.00000E+000	Step Size (mV)
CYCLES	IQUANT	2	Cycles (#)
IMODE	SELECTOR	0	I/E Range Mode
IRANGE	QUANT	3.00000E-001	Max Current (mA)
AREA	QUANT	1.00000E+000	Sample Area (cm^2)
EQDELAY	QUANT	0.00000E+000	Equil. Time (s)
IRCOMP	SELECTOR	0	IRComp
PFCOR	QUANT	5.00000E+001	PF Corr. (ohm)
SAMPLINGMODE	SELECTOR	1	Sampling Mode
EOC	QUANT	0.1259027	Open Circuit (V)
ELECTRODETYPE	SELECTOR	0	Electrode Type
STRIPPING	TOGGLE	F	Used for Stripping
SEQUENCER	TOGGLE	TRUE	Run as Sequence
PSTATMODEL	IQUANT	5	Pstat Model
PSTATSECTION	LABEL	REF3000-48128	Pstat Section
PSTATSERIALNO	LABEL	48128	Pstat Serial Number
CTRLMODE	IQUANT	1	Control Mode
ELECTROMETER	IQUANT	0	RE=0 or CS=1
IESTAB	IQUANT	2	I/E Stability
CASPEED	IQUANT	4	Control Amp Speed
CONVENTION	IQUANT	1	Current Convention
ICHRANGE	IQUANT	2	Ich Range
ICHRANGEMODE	TOGGLE	F	Ich Auto Range
ICHOFFSETENABLE	TOGGLE	F	Ich Offset Enable
ICHOFFSET	QUANT	0	Ich Offset (V)
ICHFILTER	IQUANT	3	Ich Filter
VCHRANGE	IQUANT	2	Vch Range
VCHRANGEMODE	TOGGLE	F	Vch Auto Range
VCHOFFSETENABLE	TOGGLE	F	Vch Offset Enable
VCHOFFSET	QUANT	0	Vch Offset (V)
VCHFILTER	IQUANT	3	Vch Filter
ACHRANGE	IQUANT	2	Ach Range
ACHOFFSETENABLE	TOGGLE	F	Ach Offset Enable
ACHOFFSET	QUANT	0	Ach Offset (V)
ACHFILTER	IQUANT	1	Ach Filter
IERANGELOWERLIMIT	IQUANT	2	I/E Range Lower Limit
IERANGEMODE	TOGGLE	T	I/E AutoRange
IERANGE	IQUANT	9	I/E Range
POSFEEDENABLE	TOGGLE	F	Positive Feedback IR Comp
POSFEEDRESISTANCE	QUANT	0	Positive Feedback Resistance (ohm)
ACHSELECT	IQUANT	4	Ach Select
SENSECABLEID	IQUANT	14	Sense Cable ID
PWRCABLEID	IQUANT	7	Power Cable ID
DCCALDATE	LABEL	8/16/2024	DC Calibration Date
ACCALDATE	LABEL	8/16/2024	AC Calibration Date
THERMOSELECT	IQUANT	1	Thermo Select
FRAMEWORKVERSION	LABEL	7.10.3	Framework Version
INSTRUMENTVERSION	LABEL	4.91	Instrument Version
COMMVERSION	LABEL	5.10	Communications Version
CPUPLDVERSION	LABEL	6.00	CPU PLD Version
CTRLPLDVERSION	LABEL	3.21	CTRL PLD Version
PSTATPLDVERSION	LABEL	0.00	PSTAT PLD Version
COMPLIANCEVOLTAGE	IQUANT	0	Compliance Voltage
CURVE1	TABLE
	Pt	T	Vf	Im	Vu	Sig	Ach	IERange	Over	Temp
	#	s	V vs. Ref.	A	V	V	V	#	bits	deg C
	0	0.5	1.25566E-001	5.92601E-004	0.00000E+000	1.25900E-001	-9.69548E-005	9	...........	-327.56
	10	5.5	1.35643E-001	3.26131E-003	0.00000E+000	1.35900E-001	-9.53214E-005	10	...........	-327.56
	20	10.5	1.45549E-001	5.58080E-003	0.00000E+000	1.45900E-001	-1.00288E-004	10	...........	-327.56
	30	15.5	1.55559E-001	7.49353E-003	0.00000E+000	1.55900E-001	-9.55548E-005	10	...........	-327.56
	40	20.5	1.65536E-001	9.41009E-003	0.00000E+000	1.65900E-001	-9.49214E-005	10	...........	-327.56
	50	25.5	1.75465E-001	1.12369E-002	0.00000E+000	1.75900E-001	-1.03355E-004	10	...........	-327.56
	60	30.5	1.85503E-001	1.30114E-002	0.00000E+000	1.85900E-001	-1.05088E-004	10	...........	-327.56
	70	35.5	1.95388E-001	1.47652E-002	0.00000E+000	1.95900E-001	-1.06588E-004	10	...........	-327.56
	80	40.5	2.05379E-001	1.64833E-002	0.00000E+000	2.05900E-001	-1.07155E-004	10	...........	-327.56
	90	45.5	2.15379E-001	1.82507E-002	0.00000E+000	2.15900E-001	-1.04288E-004	10	...........	-327.56
	100	50.5	2.25312E-001	2.01352E-002	0.00000E+000	2.25900E-001	-1.06221E-004	10	...........	-327.56
	110	55.5	2.35328E-001	2.19600E-002	0.00000E+000	2.35900E-001	-1.06788E-004	10	...........	-327.56
	120	60.5	2.45206E-001	2.39294E-002	0.00000E+000	2.45900E-001	-1.03355E-004	10	...........	-327.56
	130	65.5	2.55205E-001	2.58950E-002	0.00000E+000	2.55900E-001	-1.00621E-004	10	...........	-327.56
	140	70.5	2.65535E-001	2.81087E-002	0.00000E+000	2.65900E-001	-1.04855E-004	11	...........	-327.56
	150	75.5	2.75462E-001	3.02825E-002	0.00000E+000	2.75900E-001	-1.03355E-004	11	...........	-327.56
	160	80.5	2.85503E-001	3.24486E-002	0.00000E+000	2.85900E-001	-1.03055E-004	11	...........	-327.56
	170	85.5	2.95393E-001	3.48735E-002	0.00000E+000	2.95900E-001	-1.08355E-004	11	...........	-327.56
	180	90.5	3.05492E-001	3.72859E-002	0.00000E+000	3.05900E-001	-1.06221E-004	11	...........	-327.56
	190	95.5	3.15451E-001	3.97720E-002	0.00000E+000	3.15900E-001	-1.07188E-004	11	...........	-327.56
	200	100.5	3.25373E-001	4.25647E-002	0.00000E+000	3.25900E-001	-1.03755E-004	11	...........	-327.56
	210	105.5	3.35408E-001	4.55402E-002	0.00000E+000	3.35900E-001	-1.05821E-004	11	...........	-327.56
	220	110.5	3.45403E-001	4.79336E-002	0.00000E+000	3.45900E-001	-1.03321E-004	11	...........	-327.56
	230	115.5	3.55368E-001	4.72186E-002	0.00000E+000	3.55900E-001	-1.06921E-004	11	...........	-327.56
	240	120.5	3.65402E-001	4.34155E-002	0.00000E+000	3.65900E-001	-1.00721E-004	11	...........	-327.56
	250	125.5	3.75343E-001	3.78267E-002	0.00000E+000	3.75900E-001	-1.06188E-004	11	...........	-327.56
	260	130.5	3.85418E-001	3.10738E-002	0.00000E+000	3.85900E-001	-1.05188E-004	11	...........	-327.56
	270	135.5	3.95420E-001	2.45976E-002	0.00000E+000	3.95900E-001	-1.05821E-004	11	...........	-327.56
	280	140.5	4.05135E-001	2.03795E-002	0.00000E+000	4.05900E-001	-1.05421E-004	10	...........	-327.56
	290	145.5	4.15197E-001	1.82595E-002	0.00000E+000	4.15900E-001	-1.05155E-004	10	...........	-327.56
	300	150.5	4.25133E-001	1.71737E-002	0.00000E+000	4.25900E-001	-1.03388E-004	10	...........	-327.56
	310	155.5	4.35181E-001	1.66643E-002	0.00000E+000	4.35900E-001	-1.06988E-004	10	...........	-327.56
	320	160.5	4.45230E-001	1.64895E-002	0.00000E+000	4.45900E-001	-1.00588E-004	10	...........	-327.56
	330	165.5	4.55144E-001	1.65630E-002	0.00000E+000	4.55900E-001	-1.02055E-004	10	...........	-327.56
	340	170.5	4.65173E-001	1.69097E-002	0.00000E+000	4.65900E-001	-1.04455E-004	10	...........	-327.56
	350	175.5	4.75133E-001	1.73595E-002	0.00000E+000	4.75900E-001	-1.07455E-004	10	...........	-327.56
	360	180.5	4.85123E-001	1.79125E-002	0.00000E+000	4.85900E-001	-1.04288E-004	10	...........	-327.56
	370	185.5	4.95168E-001	1.83180E-002	0.00000E+000	4.95900E-001	-1.05155E-004	10	...........	-327.56
	380	190.5	5.05077E-001	1.86647E-002	0.00000E+000	5.05900E-001	-1.02421E-004	10	...........	-327.56
	390	195.5	5.15107E-001	1.88473E-002	0.00000E+000	5.15900E-001	-1.06488E-004	10	...........	-327.56
	400	200.5	5.24999E-001	1.90940E-002	0.00000E+000	5.25900E-001	-1.03088E-004	10	...........	-327.56
	410	205.5	5.35036E-001	1.91333E-002	0.00000E+000	5.35900E-001	-1.02888E-004	10	...........	-327.56
	420	210.5	5.45067E-001	1.91581E-002	0.00000E+000	5.45900E-001	-1.04221E-004	10	...........	-327.56
	430	215.5	5.55074E-001	1.91685E-002	0.00000E+000	5.55900E-001	-1.04355E-004	10	...........	-327.56
	440	220.5	5.65048E-001	1.91161E-002	0.00000E+000	5.65900E-001	-1.04488E-004	10	...........	-327.56
	450	225.5	5.75054E-001	1.90722E-002	0.00000E+000	5.75900E-001	-1.03955E-004	10	...........	-327.56
	460	230.5	5.85006E-001	1.89817E-002	0.00000E+000	5.85900E-001	-1.02188E-004	10	...........	-327.56
	470	235.5	5.95063E-001	1.89244E-002	0.00000E+000	5.95900E-001	-1.03755E-004	10	...........	-327.56
	480	240.5	6.04963E-001	1.87322E-002	0.00000E+000	6.05900E-001	-1.00955E-004	10	...........	-327.56
	490	245.5	6.14996E-001	1.85596E-002	0.00000E+000	6.15900E-001	-1.05121E-004	10	...........	-327.56
	500	250.5	6.25012E-001	1.85227E-002	0.00000E+000	6.25900E-001	-1.00821E-004	10	...........	-327.56
	510	255.5	6.34994E-001	1.82941E-002	0.00000E+000	6.35900E-001	-1.00888E-004	10	...........	-327.56
	520	260.5	6.45010E-001	1.82064E-002	0.00000E+000	6.45900E-001	-1.02355E-004	10	...........	-327.56
	530	265.5	6.54920E-001	1.80144E-002	0.00000E+000	6.55900E-001	-1.03755E-004	10	...........	-327.56
	540	270.5	6.64968E-001	1.78210E-002	0.00000E+000	6.65900E-001	-1.03221E-004	10	...........	-327.56
	550	275.5	6.75007E-001	1.76775E-002	0.00000E+000	6.75900E-001	-1.01388E-004	10	...........	-327.56
	560	280.5	6.84938E-001	1.75612E-002	0.00000E+000	6.85900E-001	-1.04421E-004	10	...........	-327.56
	570	285.5	6.94980E-001	1.73576E-002	0.00000E+000	6.95900E-001	-9.91881E-005	10	...........	-327.56
	580	290.5	7.04871E-001	1.73287E-002	0.00000E+000	7.05900E-001	-1.04255E-004	10	...........	-327.56
	590	295.5	7.14942E-001	1.71030E-002	0.00000E+000	7.15900E-001	-1.01255E-004	10	...........	-327.56
	600	300.5	7.24943E-001	1.70237E-002	0.00000E+000	7.25900E-001	-1.06355E-004	10	...........	-327.56
	610	305.5	7.34845E-001	1.69094E-002	0.00000E+000	7.35900E-001	-1.01855E-004	10	...........	-327.56
	620	310.5	7.44904E-001	1.67665E-002	0.00000E+000	7.45900E-001	-1.03288E-004	10	...........	-327.56
	630	315.5	7.54894E-001	1.67371E-002	0.00000E+000	7.55900E-001	-1.01155E-004	10	...........	-327.56
	640	320.5	7.64850E-001	1.66137E-002	0.00000E+000	7.65900E-001	-1.02355E-004	10	...........	-327.56
	650	325.5	7.74900E-001	1.65629E-002	0.00000E+000	7.75900E-001	-1.01255E-004	10	...........	-327.56
	660	330.5	7.84822E-001	1.64610E-002	0.00000E+000	7.85900E-001	-1.00421E-004	10	...........	-327.56
	670	335.5	7.94869E-001	1.63646E-002	0.00000E+000	7.95900E-001	-9.91548E-005	10	...........	-327.56
	680	340.5	8.04882E-001	1.63268E-002	0.00000E+000	8.05900E-001	-1.04288E-004	10	...........	-327.56
	690	345.5	8.14825E-001	1.63123E-002	0.00000E+000	8.15900E-001	-1.02055E-004	10	...........	-327.56
	700	350.5	8.24818E-001	1.62753E-002	0.00000E+000	8.25900E-001	-1.02521E-004	10	...........	-327.56
	710	355.5	8.34744E-001	1.62748E-002	0.00000E+000	8.35900E-001	-1.01621E-004	10	...........	-327.56
	720	360.5	8.44776E-001	1.62530E-002	0.00000E+000	8.45900E-001	-1.01988E-004	10	...........	-327.56
	730	365.5	8.54829E-001	1.62770E-002	0.00000E+000	8.55900E-001	-1.03455E-004	10	...........	-327.56
	740	370.5	8.64747E-001	1.63473E-002	0.00000E+000	8.65900E-001	-1.01488E-004	10	...........	-327.56
	750	375.5	8.74779E-001	1.63946E-002	0.00000E+000	8.75900E-001	-1.03755E-004	10	...........	-327.56
	760	380.5	8.84735E-001	1.65580E-002	0.00000E+000	8.85900E-001	-1.03655E-004	10	...........	-327.56
	770	385.5	8.94728E-001	1.67422E-002	0.00000E+000	8.95900E-001	-1.00821E-004	10	...........	-327.56
	780	390.5	9.04765E-001	1.69915E-002	0.00000E+000	9.05900E-001	-1.02088E-004	10	...........	-327.56
	790	395.5	9.14698E-001	1.73004E-002	0.00000E+000	9.15900E-001	-1.02788E-004	10	...........	-327.56
	800	400.5	9.24714E-001	1.77712E-002	0.00000E+000	9.25900E-001	-1.03855E-004	10	...........	-327.56
	810	405.5	9.34600E-001	1.84191E-002	0.00000E+000	9.35900E-001	-9.96881E-005	10	...........	-327.56
	820	410.5	9.44625E-001	1.92850E-002	0.00000E+000	9.45900E-001	-1.01055E-004	10	...........	-327.56
	830	415.5	9.54646E-001	2.03686E-002	0.00000E+000	9.55900E-001	-1.01921E-004	10	...........	-327.56
	840	420.5	9.64625E-001	2.17397E-002	0.00000E+000	9.65900E-001	-9.93881E-005	10	...........	-327.56
	850	425.5	9.74594E-001	2.33813E-002	0.00000E+000	9.75900E-001	-1.03155E-004	10	...........	-327.56
	860	430.5	9.84581E-001	2.52576E-002	0.00000E+000	9.85900E-001	-9.74214E-005	10	...........	-327.56
	870	435.5	9.94783E-001	2.74641E-002	0.00000E+000	9.95900E-001	-1.03855E-004	11	...........	-327.56
	880	440.5	1.00482E+000	2.97975E-002	0.00000E+000	1.00590E+000	-1.01888E-004	11	...........	-327.56
	890	445.5	1.01475E+000	3.23333E-002	0.00000E+000	1.01590E+000	-9.63548E-005	11	...........	-327.56
	900	450.5	1.02476E+000	3.48810E-002	0.00000E+000	1.02590E+000	-1.02188E-004	11	...........	-327.56
	910	455.5	1.03477E+000	3.75318E-002	0.00000E+000	1.03590E+000	-1.04155E-004	11	...........	-327.56
	920	460.5	1.04474E+000	4.01531E-002	0.00000E+000	1.04590E+000	-1.06155E-004	11	...........	-327.56
	930	465.5	1.05476E+000	4.27248E-002	0.00000E+000	1.05590E+000	-1.01021E-004	11	...........	-327.56
	940	470.5	1.06467E+000	4.49961E-002	0.00000E+000	1.06590E+000	-1.01755E-004	11	...........	-327.56
	950	475.5	1.07469E+000	4.68840E-002	0.00000E+000	1.07590E+000	-1.01388E-004	11	...........	-327.56
	960	480.5	1.08473E+000	4.81947E-002	0.00000E+000	1.08590E+000	-1.03321E-004	11	...........	-327.56
	970	485.5	1.09466E+000	4.86220E-002	0.00000E+000	1.09590E+000	-1.02355E-004	11	...........	-327.56
	980	490.5	1.10471E+000	4.77276E-002	0.00000E+000	1.10590E+000	-1.02688E-004	11	...........	-327.56
	990	495.5	1.11461E+000	4.51929E-002	0.00000E+000	1.11590E+000	-1.07021E-004	11	...........	-327.56
	1000	500.5	1.12471E+000	4.07734E-002	0.00000E+000	1.12590E+000	-1.04655E-004	11	...........	-327.56
	1010	505.5	1.13468E+000	3.52589E-002	0.00000E+000	1.13590E+000	-1.05855E-004	11	...........	-327.56
	1020	510.5	1.14462E+000	3.04901E-002	0.00000E+000	1.14590E+000	-1.03521E-004	11	...........	-327.56
	1030	515.5	1.15466E+000	2.78969E-002	0.00000E+000	1.15590E+000	-1.07621E-004	11	...........	-327.56
	1040	520.5	1.16467E+000	2.77742E-002	0.00000E+000	1.16590E+000	-9.80881E-005	11	...........	-327.56
	1050	525.5	1.17462E+000	2.94446E-002	0.00000E+000	1.17590E+000	-1.04988E-004	11	...........	-327.56
	1060	530.5	1.18466E+000	3.23414E-002	0.00000E+000	1.18590E+000	-1.00421E-004	11	...........	-327.56
	1070	535.5	1.19458E+000	3.62034E-002	0.00000E+000	1.19590E+000	-1.04021E-004	11	...........	-327.56
	1080	540.5	1.20464E+000	4.06997E-002	0.00000E+000	1.20590E+000	-1.06321E-004	11	...........	-327.56
	1090	545.5	1.21461E+000	4.64574E-002	0.00000E+000	1.21590E+000	-1.04821E-004	11	...........	-327.56
	1100	550.5	1.22454E+000	5.34776E-002	0.00000E+000	1.22590E+000	-1.04655E-004	11	...........	-327.56
	1110	555.5	1.23458E+000	6.11423E-002	0.00000E+000	1.23590E+000	-1.07021E-004	11	...........	-327.56
	1120	560.5	1.24448E+000	6.98017E-002	0.00000E+000	1.24590E+000	-1.02421E-004	11	...........	-327.56
	1130	565.5	1.25451E+000	7.94819E-002	0.00000E+000	1.25590E+000	-1.05021E-004	11	...........	-327.56
	1140	570.5	1.26452E+000	9.05187E-002	0.00000E+000	1.26590E+000	-1.00288E-004	11	...........	-327.56
	1150	575.5	1.27441E+000	1.03052E-001	0.00000E+000	1.27590E+000	-1.06088E-004	11	...........	-327.56
	1160	580.5	1.28442E+000	1.17134E-001	0.00000E+000	1.28590E+000	-1.06321E-004	11	...........	-327.56
	1170	585.5	1.29434E+000	1.33007E-001	0.00000E+000	1.29590E+000	-1.04121E-004	11	...........	-327.56
	1180	590.5	1.30433E+000	1.50622E-001	0.00000E+000	1.30590E+000	-1.02188E-004	11	...........	-327.56
	1190	595.5	1.31434E+000	1.69971E-001	0.00000E+000	1.31590E+000	-1.02221E-004	11	...........	-327.56
	1200	600.5	1.32424E+000	1.91272E-001	0.00000E+000	1.32590E+000	-1.00021E-004	11	...........	-327.56
	1210	605.5	1.33424E+000	2.13419E-001	0.00000E+000	1.33590E+000	-1.00088E-004	11	...........	-327.56
	1220	610.5	1.34413E+000	2.36632E-001	0.00000E+000	1.34590E+000	-9.83548E-005	11	...........	-327.56
	1230	615.5	1.35407E+000	2.60329E-001	0.00000E+000	1.35590E+000	-1.00755E-004	11	...........	-327.56
	1240	620.5	1.36437E+000	2.85714E-001	0.00000E+000	1.36590E+000	-1.10121E-004	12	...........	-327.56
	1250	625.5	1.37433E+000	3.11539E-001	0.00000E+000	1.37590E+000	-1.04821E-004	12	...........	-327.56
	1260	630.5	1.38432E+000	3.37755E-001	0.00000E+000	1.38590E+000	-1.05455E-004	12	...........	-327.56
	1270	635.5	1.39430E+000	3.65415E-001	0.00000E+000	1.39590E+000	-1.03221E-004	12	...........	-327.56
	1280	640.5	1.40424E+000	3.91636E-001	0.00000E+000	1.40590E+000	-1.05188E-004	12	...........	-327.56
	1290	645.5	1.41429E+000	4.16682E-001	0.00000E+000	1.41590E+000	-1.04321E-004	12	...........	-327.56
	1300	650.5	1.42416E+000	4.41730E-001	0.00000E+000	1.42590E+000	-1.04921E-004	12	...........	-327.56
	1310	655.5	1.43416E+000	4.65656E-001	0.00000E+000	1.43590E+000	-1.02388E-004	12	...........	-327.56
	1320	660.5	1.44417E+000	4.90231E-001	0.00000E+000	1.44590E+000	-1.08088E-004	12	...........	-327.56
	1330	665.5	1.45411E+000	5.10714E-001	0.00000E+000	1.45590E+000	-1.05855E-004	12	...........	-327.56
	1340	670.5	1.46413E+000	5.35678E-001	0.00000E+000	1.46590E+000	-1.04288E-004	12	...........	-327.56
	1350	675.5	1.47402E+000	5.63406E-001	0.00000E+000	1.47590E+000	-1.06755E-004	12	...........	-327.56
	1360	680.5	1.48405E+000	5.88221E-001	0.00000E+000	1.48590E+000	-1.07588E-004	12	...........	-327.56
	1370	685.5	1.49405E+000	6.24687E-001	0.00000E+000	1.49590E+000	-1.04755E-004	12	...........	-327.56
	1380	690.5	1.50396E+000	6.52703E-001	0.00000E+000	1.50590E+000	-1.02021E-004	12	...........	-327.56
	1390	695.5	1.51401E+000	6.84327E-001	0.00000E+000	1.51590E+000	-1.02221E-004	12	...........	-327.56
	1400	700.5	1.52388E+000	7.15646E-001	0.00000E+000	1.52590E+000	-1.06588E-004	12	...........	-327.56
	1410	705.5	1.53391E+000	7.42625E-001	0.00000E+000	1.53590E+000	-1.05288E-004	12	...........	-327.56
	1420	710.5	1.54391E+000	7.68892E-001	0.00000E+000	1.54590E+000	-1.06788E-004	12	...........	-327.56
	1430	715.5	1.55381E+000	8.06579E-001	0.00000E+000	1.55590E+000	-1.03755E-004	12	...........	-327.56
	1440	720.5	1.56384E+000	8.28311E-001	0.00000E+000	1.56590E+000	-1.04655E-004	12	...........	-327.56
	1450	725.5	1.57380E+000	8.63763E-001	0.00000E+000	1.57590E+000	-1.02988E-004	12	...........	-327.56
	1460	730.5	1.58376E+000	9.02424E-001	0.00000E+000	1.58590E+000	-1.04755E-004	12	...........	-327.56
	1470	735.5	1.59376E+000	9.32128E-001	0.00000E+000	1.59590E+000	-1.00355E-004	12	...........	-327.56
	1480	740.5	1.60364E+000	9.63862E-001	0.00000E+000	1.60590E+000	-1.05155E-004	12	...........	-327.56
	1490	745.5	1.61367E+000	9.83909E-001	0.00000E+000	1.61590E+000	-1.03655E-004	12	...........	-327.56
	1500	750.5	1.62368E+000	1.02221E+000	0.00000E+000	1.62590E+000	-1.05021E-004	12	...........	-327.56
	1510	755.5	1.63360E+000	1.05598E+000	0.00000E+000	1.63590E+000	-1.04455E-004	12	...........	-327.56
	1520	760.5	1.64362E+000	1.09056E+000	0.00000E+000	1.64590E+000	-1.06555E-004	12	...........	-327.56
	1530	765.5	1.65352E+000	1.11567E+000	0.00000E+000	1.65590E+000	-1.02088E-004	12	...........	-327.56
	1540	770.5	1.66352E+000	1.14752E+000	0.00000E+000	1.66590E+000	-1.02521E-004	12	...........	-327.56
	1550	775.5	1.67355E+000	1.17072E+000	0.00000E+000	1.67590E+000	-1.04055E-004	12	...........	-327.56
	1560	780.5	1.68348E+000	1.19277E+000	0.00000E+000	1.68590E+000	-1.04055E-004	12	...........	-327.56
	1570	785.5	1.69351E+000	1.23153E+000	0.00000E+000	1.69590E+000	-1.01788E-004	12	...........	-327.56
	1580	790.5	1.69151E+000	1.23230E+000	0.00000E+000	1.69390E+000	-1.04821E-004	12	...........	-327.56
	1590	795.5	1.68153E+000	1.21274E+000	0.00000E+000	1.68390E+000	-1.04121E-004	12	...........	-327.56
	1600	800.5	1.67156E+000	1.19047E+000	0.00000E+000	1.67390E+000	-1.02988E-004	12	...........	-327.56
	1610	805.5	1.66151E+000	1.16259E+000	0.00000E+000	1.66390E+000	-1.00888E-004	12	...........	-327.56
	1620	810.5	1.65149E+000	1.15391E+000	0.00000E+000	1.65390E+000	-1.02888E-004	12	...........	-327.56
	1630	815.5	1.64158E+000	1.12602E+000	0.00000E+000	1.64390E+000	-1.01988E-004	12	...........	-327.56
	1640	820.5	1.63158E+000	1.09406E+000	0.00000E+000	1.63390E+000	-1.02388E-004	12	...........	-327.56
	1650	825.5	1.62166E+000	1.07909E+000	0.00000E+000	1.62390E+000	-1.05788E-004	12	...........	-327.56
	1660	830.5	1.61162E+000	1.05712E+000	0.00000E+000	1.61390E+000	-1.03521E-004	12	...........	-327.56
	1670	835.5	1.60157E+000	1.02966E+000	0.00000E+000	1.60390E+000	-1.03255E-004	12	...........	-327.56
	1680	840.5	1.59170E+000	1.01030E+000	0.00000E+000	1.59390E+000	-1.04988E-004	12	...........	-327.56
	1690	845.5	1.58168E+000	9.87934E-001	0.00000E+000	1.58390E+000	-1.07921E-004	12	...........	-327.56
	1700	850.5	1.57177E+000	9.54367E-001	0.00000E+000	1.57390E+000	-9.90548E-005	12	...........	-327.56
	1710	855.5	1.56175E+000	9.30014E-001	0.00000E+000	1.56390E+000	-1.04488E-004	12	...........	-327.56
	1720	860.5	1.55177E+000	9.09243E-001	0.00000E+000	1.55390E+000	-1.03821E-004	12	...........	-327.56
	1730	865.5	1.54183E+000	8.76627E-001	0.00000E+000	1.54390E+000	-1.04888E-004	12	...........	-327.56
	1740	870.5	1.53183E+000	8.59523E-001	0.00000E+000	1.53390E+000	-1.02955E-004	12	...........	-327.56
	1750	875.5	1.52191E+000	8.34326E-001	0.00000E+000	1.52390E+000	-1.05421E-004	12	...........	-327.56
	1760	880.5	1.51193E+000	8.10260E-001	0.00000E+000	1.51390E+000	-1.05955E-004	12	...........	-327.56
	1770	885.5	1.50189E+000	7.72252E-001	0.00000E+000	1.50390E+000	-1.03421E-004	12	...........	-327.56
	1780	890.5	1.49196E+000	7.57163E-001	0.00000E+000	1.49390E+000	-1.03888E-004	12	...........	-327.56
	1790	895.5	1.48196E+000	7.19565E-001	0.00000E+000	1.48390E+000	-1.03621E-004	12	...........	-327.56
	1800	900.5	1.47202E+000	6.98851E-001	0.00000E+000	1.47390E+000	-1.03555E-004	12	...........	-327.56
	1810	905.5	1.46203E+000	6.67201E-001	0.00000E+000	1.46390E+000	-1.03055E-004	12	...........	-327.56
	1820	910.5	1.45201E+000	6.36588E-001	0.00000E+000	1.45390E+000	-1.04521E-004	12	...........	-327.56
	1830	915.5	1.44211E+000	6.03243E-001	0.00000E+000	1.44390E+000	-1.04355E-004	12	...........	-327.56
	1840	920.5	1.43211E+000	5.80914E-001	0.00000E+000	1.43390E+000	-1.04255E-004	12	...........	-327.56
	1850	925.5	1.42209E+000	5.55481E-001	0.00000E+000	1.42390E+000	-1.11521E-004	12	...........	-327.56
	1860	930.5	1.41218E+000	5.31003E-001	0.00000E+000	1.41390E+000	-1.02788E-004	12	...........	-327.56
	1870	935.5	1.40216E+000	5.06213E-001	0.00000E+000	1.40390E+000	-1.04988E-004	12	...........	-327.56
	1880	940.5	1.39224E+000	4.79892E-001	0.00000E+000	1.39390E+000	-1.04721E-004	12	...........	-327.56
	1890	945.5	1.38226E+000	4.55978E-001	0.00000E+000	1.38390E+000	-1.00621E-004	12	...........	-327.56
	1900	950.5	1.37220E+000	4.32477E-001	0.00000E+000	1.37390E+000	-1.05121E-004	12	...........	-327.56
	1910	955.5	1.36231E+000	4.10175E-001	0.00000E+000	1.36390E+000	-1.01055E-004	12	...........	-327.56
	1920	960.5	1.35227E+000	3.86450E-001	0.00000E+000	1.35390E+000	-1.02655E-004	12	...........	-327.56
	1930	965.5	1.34234E+000	3.62055E-001	0.00000E+000	1.34390E+000	-1.05388E-004	12	...........	-327.56
	1940	970.5	1.33234E+000	3.38474E-001	0.00000E+000	1.33390E+000	-1.02655E-004	12	...........	-327.56
	1950	975.5	1.32236E+000	3.16109E-001	0.00000E+000	1.32390E+000	-9.83548E-005	12	...........	-327.56
	1960	980.5	1.31244E+000	2.94337E-001	0.00000E+000	1.31390E+000	-1.01121E-004	12	...........	-327.56
	1970	985.5	1.30240E+000	2.70724E-001	0.00000E+000	1.30390E+000	-1.01188E-004	12	...........	-327.56
	1980	990.5	1.29247E+000	2.48689E-001	0.00000E+000	1.29390E+000	-1.00321E-004	12	...........	-327.56
	1990	995.5	1.28225E+000	2.25746E-001	0.00000E+000	1.28390E+000	-9.58881E-005	11	...........	-327.56
	2000	1000.5	1.27225E+000	2.06085E-001	0.00000E+000	1.27390E+000	-9.91214E-005	11	...........	-327.56
	2010	1005.5	1.26235E+000	1.87791E-001	0.00000E+000	1.26390E+000	-1.01388E-004	11	...........	-327.56
	2020	1010.5	1.25233E+000	1.69487E-001	0.00000E+000	1.25390E+000	-9.81548E-005	11	...........	-327.56
	2030	1015.5	1.24232E+000	1.53747E-001	0.00000E+000	1.24390E+000	-1.03455E-004	11	...........	-327.56
	2040	1020.5	1.23243E+000	1.39939E-001	0.00000E+000	1.23390E+000	-1.01388E-004	11	...........	-327.56
	2050	1025.5	1.22239E+000	1.26350E-001	0.00000E+000	1.22390E+000	-1.02755E-004	11	...........	-327.56
	2060	1030.5	1.21248E+000	1.13499E-001	0.00000E+000	1.21390E+000	-1.01521E-004	11	...........	-327.56
	2070	1035.5	1.20247E+000	1.01125E-001	0.00000E+000	1.20390E+000	-1.04288E-004	11	...........	-327.56
	2080	1040.5	1.19245E+000	9.02646E-002	0.00000E+000	1.19390E+000	-1.00455E-004	11	...........	-327.56
	2090	1045.5	1.18256E+000	8.12145E-002	0.00000E+000	1.18390E+000	-1.03921E-004	11	...........	-327.56
	2100	1050.5	1.17257E+000	7.24547E-002	0.00000E+000	1.17390E+000	-1.03921E-004	11	...........	-327.56
	2110	1055.5	1.16260E+000	6.34234E-002	0.00000E+000	1.16390E+000	-1.02788E-004	11	...........	-327.56
	2120	1060.5	1.15260E+000	5.55306E-002	0.00000E+000	1.15390E+000	-9.85881E-005	11	...........	-327.56
	2130	1065.5	1.14257E+000	4.91527E-002	0.00000E+000	1.14390E+000	-1.01255E-004	11	...........	-327.56
	2140	1070.5	1.13267E+000	4.29673E-002	0.00000E+000	1.13390E+000	-1.00521E-004	11	...........	-327.56
	2150	1075.5	1.12267E+000	3.72980E-002	0.00000E+000	1.12390E+000	-1.01588E-004	11	...........	-327.56
	2160	1080.5	1.11272E+000	3.28794E-002	0.00000E+000	1.11390E+000	-1.02221E-004	11	...........	-327.56
	2170	1085.5	1.10274E+000	2.90828E-002	0.00000E+000	1.10390E+000	-1.02655E-004	11	...........	-327.56
	2180	1090.5	1.09273E+000	2.60270E-002	0.00000E+000	1.09390E+000	-1.04321E-004	11	...........	-327.56
	2190	1095.5	1.08249E+000	2.33392E-002	0.00000E+000	1.08390E+000	-1.00888E-004	10	...........	-327.56
	2200	1100.5	1.07250E+000	2.12914E-002	0.00000E+000	1.07390E+000	-9.97881E-005	10	...........	-327.56
	2210	1105.5	1.06254E+000	1.96726E-002	0.00000E+000	1.06390E+000	-9.96214E-005	10	...........	-327.56
	2220	1110.5	1.05261E+000	1.83167E-002	0.00000E+000	1.05390E+000	-1.01621E-004	10	...........	-327.56
	2230	1115.5	1.04257E+000	1.72421E-002	0.00000E+000	1.04390E+000	-1.02021E-004	10	...........	-327.56
	2240	1120.5	1.03265E+000	1.64539E-002	0.00000E+000	1.03390E+000	-1.01155E-004	10	...........	-327.56
	2250	1125.5	1.02263E+000	1.58742E-002	0.00000E+000	1.02390E+000	-1.03655E-004	10	...........	-327.56
	2260	1130.5	1.01267E+000	1.53443E-002	0.00000E+000	1.01390E+000	-1.02888E-004	10	...........	-327.56
	2270	1135.5	1.00268E+000	1.51486E-002	0.00000E+000	1.00390E+000	-1.04155E-004	10	...........	-327.56
	2280	1140.5	9.92639E-001	1.49652E-002	0.00000E+000	9.93900E-001	-1.01788E-004	10	...........	-327.56
	2290	1145.5	9.82710E-001	1.48585E-002	0.00000E+000	9.83900E-001	-1.02588E-004	10	...........	-327.56
	2300	1150.5	9.72707E-001	1.47135E-002	0.00000E+000	9.73900E-001	-1.00788E-004	10	...........	-327.56
	2310	1155.5	9.62646E-001	1.46764E-002	0.00000E+000	9.63900E-001	-1.00221E-004	10	...........	-327.56
	2320	1160.5	9.52735E-001	1.45770E-002	0.00000E+000	9.53900E-001	-9.86214E-005	10	...........	-327.56
	2330	1165.5	9.42697E-001	1.44825E-002	0.00000E+000	9.43900E-001	-1.01188E-004	10	...........	-327.56
	2340	1170.5	9.32744E-001	1.43871E-002	0.00000E+000	9.33900E-001	-1.03788E-004	10	...........	-327.56
	2350	1175.5	9.22728E-001	1.44111E-002	0.00000E+000	9.23900E-001	-1.04821E-004	10	...........	-327.56
	2360	1180.5	9.12731E-001	1.43387E-002	0.00000E+000	9.13900E-001	-9.94548E-005	10	...........	-327.56
	2370	1185.5	9.02808E-001	1.43028E-002	0.00000E+000	9.03900E-001	-9.97881E-005	10	...........	-327.56
	2380	1190.5	8.92755E-001	1.41674E-002	0.00000E+000	8.93900E-001	-1.01455E-004	10	...........	-327.56
	2390	1195.5	8.82806E-001	1.40178E-002	0.00000E+000	8.83900E-001	-1.04321E-004	10	...........	-327.56
	2400	1200.5	8.72738E-001	2.06691E-002	0.00000E+000	8.73900E-001	-1.00288E-004	10	...........	-327.56
	2410	1205.5	8.62721E-001	1.83743E-002	0.00000E+000	8.63900E-001	-1.00221E-004	10	...........	-327.56
	2420	1210.5	8.52809E-001	1.64700E-002	0.00000E+000	8.53900E-001	-1.05488E-004	10	...........	-327.56
	2430	1215.5	8.42781E-001	1.56334E-002	0.00000E+000	8.43900E-001	-1.01188E-004	10	...........	-327.56
	2440	1220.5	8.32750E-001	1.51504E-002	0.00000E+000	8.33900E-001	-1.02221E-004	10	...........	-327.56
	2450	1225.5	8.22844E-001	1.47276E-002	0.00000E+000	8.23900E-001	-1.02355E-004	10	...........	-327.56
	2460	1230.5	8.12823E-001	1.45406E-002	0.00000E+000	8.13900E-001	-1.00521E-004	10	...........	-327.56
	2470	1235.5	8.02915E-001	1.44470E-002	0.00000E+000	8.03900E-001	-1.01621E-004	10	...........	-327.56
	2480	1240.5	7.92861E-001	1.43350E-002	0.00000E+000	7.93900E-001	-1.00855E-004	10	...........	-327.56
	2490	1245.5	7.82837E-001	1.44292E-002	0.00000E+000	7.83900E-001	-1.00421E-004	10	...........	-327.56
	2500	1250.5	7.72927E-001	1.43708E-002	0.00000E+000	7.73900E-001	-1.02588E-004	10	...........	-327.56
	2510	1255.5	7.62894E-001	1.43984E-002	0.00000E+000	7.63900E-001	-1.02721E-004	10	...........	-327.56
	2520	1260.5	7.52946E-001	1.43214E-002	0.00000E+000	7.53900E-001	-1.03121E-004	10	...........	-327.56
	2530	1265.5	7.42927E-001	1.42071E-002	0.00000E+000	7.43900E-001	-9.77881E-005	10	...........	-327.56
	2540	1270.5	7.32867E-001	1.40936E-002	0.00000E+000	7.33900E-001	-1.05221E-004	10	...........	-327.56
	2550	1275.5	7.22973E-001	1.39764E-002	0.00000E+000	7.23900E-001	-9.79548E-005	10	...........	-327.56
	2560	1280.5	7.12984E-001	1.38452E-002	0.00000E+000	7.13900E-001	-1.05588E-004	10	...........	-327.56
	2570	1285.5	7.03033E-001	1.35935E-002	0.00000E+000	7.03900E-001	-9.99214E-005	10	...........	-327.56
	2580	1290.5	6.93022E-001	1.33231E-002	0.00000E+000	6.93900E-001	-1.02355E-004	10	...........	-327.56
	2590	1295.5	6.83031E-001	1.31539E-002	0.00000E+000	6.83900E-001	-1.02921E-004	10	...........	-327.56
	2600	1300.5	6.73046E-001	1.30780E-002	0.00000E+000	6.73900E-001	-1.03855E-004	10	...........	-327.56
	2610	1305.5	6.63021E-001	1.30766E-002	0.00000E+000	6.63900E-001	-9.82548E-005	10	...........	-327.56
	2620	1310.5	6.52984E-001	1.30392E-002	0.00000E+000	6.53900E-001	-1.01488E-004	10	...........	-327.56
	2630	1315.5	6.43092E-001	1.29735E-002	0.00000E+000	6.43900E-001	-1.04621E-004	10	...........	-327.56
	2640	1320.5	6.33019E-001	1.29387E-002	0.00000E+000	6.33900E-001	-1.04121E-004	10	...........	-327.56
	2650	1325.5	6.23093E-001	1.27993E-002	0.00000E+000	6.23900E-001	-9.74214E-005	10	...........	-327.56
	2660	1330.5	6.13078E-001	1.25411E-002	0.00000E+000	6.13900E-001	-1.02921E-004	10	...........	-327.56
	2670	1335.5	6.03107E-001	1.24129E-002	0.00000E+000	6.03900E-001	-1.03555E-004	10	...........	-327.56
	2680	1340.5	5.93112E-001	1.22491E-002	0.00000E+000	5.93900E-001	-9.99548E-005	10	...........	-327.56
	2690	1345.5	5.83071E-001	1.20199E-002	0.00000E+000	5.83900E-001	-1.00188E-004	10	...........	-327.56
	2700	1350.5	5.73157E-001	1.17600E-002	0.00000E+000	5.73900E-001	-9.99881E-005	10	...........	-327.56
	2710	1355.5	5.63138E-001	1.15125E-002	0.00000E+000	5.63900E-001	-1.01688E-004	10	...........	-327.56
	2720	1360.5	5.53087E-001	1.11732E-002	0.00000E+000	5.53900E-001	-1.02855E-004	10	...........	-327.56
	2730	1365.5	5.43180E-001	1.08440E-002	0.00000E+000	5.43900E-001	-1.00821E-004	10	...........	-327.56
	2740	1370.5	5.33143E-001	1.05389E-002	0.00000E+000	5.33900E-001	-1.00788E-004	10	...........	-327.56
	2750	1375.5	5.23191E-001	1.02318E-002	0.00000E+000	5.23900E-001	-1.03855E-004	10	...........	-327.56
	2760	1380.5	5.13185E-001	9.65620E-003	0.00000E+000	5.13900E-001	-1.00455E-004	10	...........	-327.56
	2770	1385.5	5.03188E-001	9.60191E-003	0.00000E+000	5.03900E-001	-9.88881E-005	10	...........	-327.56
	2780	1390.5	4.93271E-001	9.18403E-003	0.00000E+000	4.93900E-001	-1.00988E-004	10	...........	-327.56
	2790	1395.5	4.83227E-001	8.78569E-003	0.00000E+000	4.83900E-001	-1.02821E-004	10	...........	-327.56
	2800	1400.5	4.73292E-001	8.41868E-003	0.00000E+000	4.73900E-001	-1.00888E-004	10	...........	-327.56
	2810	1405.5	4.63287E-001	8.13409E-003	0.00000E+000	4.63900E-001	-1.02655E-004	10	...........	-327.56
	2820	1410.5	4.53250E-001	7.81673E-003	0.00000E+000	4.53900E-001	-1.02021E-004	10	...........	-327.56
	2830	1415.5	4.43345E-001	7.50743E-003	0.00000E+000	4.43900E-001	-1.05188E-004	10	...........	-327.56
	2840	1420.5	4.33299E-001	7.15698E-003	0.00000E+000	4.33900E-001	-1.02288E-004	10	...........	-327.56
	2850	1425.5	4.23261E-001	6.86504E-003	0.00000E+000	4.23900E-001	-9.91548E-005	10	...........	-327.56
	2860	1430.5	4.13359E-001	6.38363E-003	0.00000E+000	4.13900E-001	-1.00655E-004	10	...........	-327.56
	2870	1435.5	4.03320E-001	6.17193E-003	0.00000E+000	4.03900E-001	-1.02155E-004	10	...........	-327.56
	2880	1440.5	3.93392E-001	5.77079E-003	0.00000E+000	3.93900E-001	-1.00755E-004	10	...........	-327.56
	2890	1445.5	3.83354E-001	5.12040E-003	0.00000E+000	3.83900E-001	-1.04455E-004	10	...........	-327.56
	2900	1450.5	3.73328E-001	4.65164E-003	0.00000E+000	3.73900E-001	-1.02888E-004	10	...........	-327.56
	2910	1455.5	3.63410E-001	4.54052E-003	0.00000E+000	3.63900E-001	-1.04088E-004	10	...........	-327.56
	2920	1460.5	3.53434E-001	3.80661E-003	0.00000E+000	3.53900E-001	-1.04255E-004	10	...........	-327.56
	2930	1465.5	3.43429E-001	3.37101E-003	0.00000E+000	3.43900E-001	-1.06055E-004	10	...........	-327.56
	2940	1470.5	3.33420E-001	3.04827E-003	0.00000E+000	3.33900E-001	-1.03521E-004	10	...........	-327.56
	2950	1475.5	3.23154E-001	2.09965E-003	0.00000E+000	3.23900E-001	-1.00655E-004	9	...........	-327.56
	2960	1480.5	3.13280E-001	1.67702E-003	0.00000E+000	3.13900E-001	-1.02255E-004	9	...........	-327.56
	2970	1485.5	3.03293E-001	1.69684E-003	0.00000E+000	3.03900E-001	-1.04421E-004	9	...........	-327.56
	2980	1490.5	2.93447E-001	9.81608E-004	0.00000E+000	2.93900E-001	-1.01121E-004	9	...........	-327.56
	2990	1495.5	2.83475E-001	6.47712E-004	0.00000E+000	2.83900E-001	-1.05855E-004	9	...........	-327.56
	3000	1500.5	2.73486E-001	6.47732E-004	0.00000E+000	2.73900E-001	-1.06521E-004	9	...........	-327.56
	3010	1505.5	2.63508E-001	4.34433E-004	0.00000E+000	2.63900E-001	-1.05621E-004	9	...........	-327.56
	3020	1510.5	2.53330E-001	1.71110E-004	0.00000E+000	2.53900E-001	-1.00788E-004	8	...........	-327.56
	3030	1515.5	2.43500E-001	5.10721E-006	0.00000E+000	2.43900E-001	-1.01788E-004	8	...........	-327.56
	3040	1520.5	2.33787E-001	-1.44426E-004	0.00000E+000	2.33900E-001	-1.01788E-004	8	...........	-327.56
	3050	1525.5	2.23598E-001	-4.28791E-004	0.00000E+000	2.23900E-001	-1.02188E-004	9	...........	-327.56
	3060	1530.5	2.13680E-001	-5.02725E-004	0.00000E+000	2.13900E-001	-1.04955E-004	9	...........	-327.56
	3070	1535.5	2.03679E-001	-6.45184E-004	0.00000E+000	2.03900E-001	-1.00821E-004	9	...........	-327.56
	3080	1540.5	1.93614E-001	-8.48065E-004	0.00000E+000	1.93900E-001	-1.05621E-004	9	...........	-327.56
	3090	1545.5	1.83793E-001	-1.09237E-003	0.00000E+000	1.83900E-001	-1.01188E-004	9	...........	-327.56
	3100	1550.5	1.73786E-001	-1.41462E-003	0.00000E+000	1.73900E-001	-1.04421E-004	9	...........	-327.56
	3110	1555.5	1.63884E-001	-1.76212E-003	0.00000E+000	1.63900E-001	-9.83548E-005	9	...........	-327.56
	3120	1560.5	1.53893E-001	-2.11366E-003	0.00000E+000	1.53900E-001	-1.00755E-004	9	...........	-327.56
	3130	1565.5	1.43937E-001	-2.48447E-003	0.00000E+000	1.43900E-001	-9.60881E-005	9	...........	-327.56
	3140	1570.5	1.33722E-001	-2.97755E-003	0.00000E+000	1.33900E-001	-1.02988E-004	10	...........	-327.56
	3150	1575.5	1.23687E-001	-3.35198E-003	0.00000E+000	1.23900E-001	-1.05088E-004	10	...........	-327.56
	3160	1580.5	1.13761E-001	-3.73829E-003	0.00000E+000	1.13900E-001	-1.05921E-004	10	...........	-327.56
	3170	1585.5	1.03759E-001	-4.05858E-003	0.00000E+000	1.03900E-001	-1.04055E-004	10	...........	-327.56
	3180	1590.5	9.37536E-002	-4.36240E-003	0.00000E+000	9.39000E-002	-1.04988E-004	10	...........	-327.56
	3190	1595.5	8.38316E-002	-4.61383E-003	0.00000E+000	8.39000E-002	-1.00121E-004	10	...........	-327.56
	3200	1600.5	7.37915E-002	-4.84529E-003	0.00000E+000	7.39000E-002	-1.02988E-004	10	...........	-327.56
	3210	1605.5	6.38365E-002	-5.03011E-003	0.00000E+000	6.39000E-002	-1.01788E-004	10	...........	-327.56
	3220	1610.5	5.38339E-002	-5.28262E-003	0.00000E+000	5.39000E-002	-1.05555E-004	10	...........	-327.56
	3230	1615.5	4.37954E-002	-5.37568E-003	0.00000E+000	4.39000E-002	-1.08488E-004	10	...........	-327.56
	3240	1620.5	3.38745E-002	-5.42615E-003	0.00000E+000	3.39000E-002	-1.07555E-004	10	...........	-327.56
	3250	1625.5	2.38612E-002	-5.51588E-003	0.00000E+000	2.39000E-002	-1.03955E-004	10	...........	-327.56
	3260	1630.5	1.37652E-002	-5.60560E-003	0.00000E+000	1.39000E-002	-1.06121E-004	10	...........	-327.56
	3270	1635.5	3.86587E-003	-5.77386E-003	0.00000E+000	3.90001E-003	-1.01221E-004	10	...........	-327.56
	3280	1640.5	-5.96738E-003	-5.95364E-003	0.00000E+000	-6.10000E-003	-1.02788E-004	10	...........	-327.56
	3290	1645.5	-1.58860E-002	-6.14576E-003	0.00000E+000	-1.61000E-002	-1.02721E-004	10	...........	-327.56
	3300	1650.5	-2.59338E-002	-6.36661E-003	0.00000E+000	-2.61000E-002	-1.01355E-004	10	...........	-327.56
	3310	1655.5	-3.59653E-002	-6.65418E-003	0.00000E+000	-3.61000E-002	-1.05555E-004	10	...........	-327.56
	3320	1660.5	-4.58642E-002	-6.90613E-003	0.00000E+000	-4.61000E-002	-1.00921E-004	10	...........	-327.56
	3330	1665.5	-5.59107E-002	-7.12546E-003	0.00000E+000	-5.61000E-002	-1.07388E-004	10	...........	-327.56
	3340	1670.5	-6.58494E-002	-7.36535E-003	0.00000E+000	-6.61000E-002	-1.03188E-004	10	...........	-327.56
	3350	1675.5	-7.58679E-002	-7.59763E-003	0.00000E+000	-7.61000E-002	-1.01588E-004	10	...........	-327.56
	3360	1680.5	-8.58990E-002	-7.62874E-003	0.00000E+000	-8.61000E-002	-1.06588E-004	10	...........	-327.56
	3370	1685.5	-9.58203E-002	-7.63204E-003	0.00000E+000	-9.61000E-002	-1.04188E-004	10	...........	-327.56
	3380	1690.5	-1.05789E-001	-7.43767E-003	0.00000E+000	-1.06100E-001	-1.04788E-004	10	...........	-327.56
	3390	1695.5	-1.15801E-001	-7.30385E-003	0.00000E+000	-1.16100E-001	-1.04855E-004	10	...........	-327.56
	3400	1700.5	-1.25775E-001	-7.09372E-003	0.00000E+000	-1.26100E-001	-1.03388E-004	10	...........	-327.56
	3410	1705.5	-1.35828E-001	-6.97180E-003	0.00000E+000	-1.36100E-001	-1.02588E-004	10	...........	-327.56
	3420	1710.5	-1.45754E-001	-6.93057E-003	0.00000E+000	-1.46100E-001	-1.01121E-004	10	...........	-327.56
	3430	1715.5	-1.55786E-001	-6.95354E-003	0.00000E+000	-1.56100E-001	-1.06321E-004	10	...........	-327.56
	3440	1720.5	-1.65818E-001	-7.15147E-003	0.00000E+000	-1.66100E-001	-1.04155E-004	10	...........	-327.56
	3450	1725.5	-1.75732E-001	-7.27518E-003	0.00000E+000	-1.76100E-001	-1.05888E-004	10	...........	-327.56
	3460	1730.5	-1.85740E-001	-7.30948E-003	0.00000E+000	-1.86100E-001	-1.03188E-004	10	...........	-327.56
	3470	1735.5	-1.95741E-001	-7.56935E-003	0.00000E+000	-1.96100E-001	-1.04721E-004	10	...........	-327.56
	3480	1740.5	-2.05732E-001	-7.78346E-003	0.00000E+000	-2.06100E-001	-1.05388E-004	10	...........	-327.56
	3490	1745.5	-2.15753E-001	-8.10357E-003	0.00000E+000	-2.16100E-001	-1.05855E-004	10	...........	-327.56
	3500	1750.5	-2.25669E-001	-8.50462E-003	0.00000E+000	-2.26100E-001	-1.06655E-004	10	...........	-327.56
	3510	1755.5	-2.35720E-001	-8.86203E-003	0.00000E+000	-2.36100E-001	-1.05621E-004	10	...........	-327.56
	3520	1760.5	-2.45658E-001	-9.31205E-003	0.00000E+000	-2.46100E-001	-1.03755E-004	10	...........	-327.56
	3530	1765.5	-2.55669E-001	-9.85583E-003	0.00000E+000	-2.56100E-001	-1.03788E-004	10	...........	-327.56
	3540	1770.5	-2.65665E-001	-1.03959E-002	0.00000E+000	-2.66100E-001	-1.03055E-004	10	...........	-327.56
	3550	1775.5	-2.75600E-001	-1.11921E-002	0.00000E+000	-2.76100E-001	-1.02355E-004	10	...........	-327.56
	3560	1780.5	-2.85635E-001	-1.21256E-002	0.00000E+000	-2.86100E-001	-9.98881E-005	10	...........	-327.56
	3570	1785.5	-2.95563E-001	-1.31879E-002	0.00000E+000	-2.96100E-001	-9.98548E-005	10	...........	-327.56
	3580	1790.5	-3.05574E-001	-1.47022E-002	0.00000E+000	-3.06100E-001	-1.03455E-004	10	...........	-327.56
	3590	1795.5	-3.15546E-001	-1.63535E-002	0.00000E+000	-3.16100E-001	-1.01488E-004	10	...........	-327.56
	3600	1800.5	-3.25453E-001	-1.85509E-002	0.00000E+000	-3.26100E-001	-9.99881E-005	10	...........	-327.56
	3610	1805.5	-3.35430E-001	-2.11863E-002	0.00000E+000	-3.36100E-001	-9.97548E-005	10	...........	-327.56
	3620	1810.5	-3.45415E-001	-2.42926E-002	0.00000E+000	-3.46100E-001	-9.74548E-005	10	...........	-327.56
	3630	1815.5	-3.55636E-001	-2.80221E-002	0.00000E+000	-3.56100E-001	-1.04888E-004	11	...........	-327.56
	3640	1820.5	-3.65662E-001	-3.19439E-002	0.00000E+000	-3.66100E-001	-1.03421E-004	11	...........	-327.56
	3650	1825.5	-3.75568E-001	-3.64896E-002	0.00000E+000	-3.76100E-001	-1.05888E-004	11	...........	-327.56
	3660	1830.5	-3.85622E-001	-4.18922E-002	0.00000E+000	-3.86100E-001	-1.03821E-004	11	...........	-327.56
	3670	1835.5	-3.95644E-001	-4.77365E-002	0.00000E+000	-3.96100E-001	-1.07021E-004	11	...........	-327.56
[...]
	11997	5999	5.22233E-001	1.31487E-001	0.00000E+000	5.23000E-001	-1.04121E-004	11	...........	-327.56
	12003	6002	5.28149E-001	1.32902E-001	0.00000E+000	5.29000E-001	-1.05055E-004	11	...........	-327.56
	12009	6005	5.34225E-001	1.20487E-001	0.00000E+000	5.35000E-001	-1.07288E-004	11	...........	-327.56
	12015	6008	5.40214E-001	1.26236E-001	0.00000E+000	5.41000E-001	-1.06121E-004	11	...........	-327.56
	12021	6011	5.46235E-001	1.23562E-001	0.00000E+000	5.47000E-001	-1.04888E-004	11	...........	-327.56
	12027	6014	5.52127E-001	1.18756E-001	0.00000E+000	5.53000E-001	-1.12588E-004	11	...........	-327.56
	12033	6017	5.58228E-001	1.17195E-001	0.00000E+000	5.59000E-001	-1.09721E-004	11	...........	-327.56
	12039	6020	5.64177E-001	1.23062E-001	0.00000E+000	5.65000E-001	-1.05388E-004	11	...........	-327.56
	12045	6023	5.70218E-001	1.21676E-001	0.00000E+000	5.71000E-001	-1.01921E-004	11	...........	-327.56
	12051	6026	5.76151E-001	1.23192E-001	0.00000E+000	5.77000E-001	-1.07588E-004	11	...........	-327.56
	12057	6029	5.82167E-001	1.26281E-001	0.00000E+000	5.83000E-001	-1.05421E-004	11	...........	-327.56
	12063	6032	5.88176E-001	1.14025E-001	0.00000E+000	5.89000E-001	-1.06955E-004	11	...........	-327.56
	12069	6035	5.94196E-001	1.20552E-001	0.00000E+000	5.95000E-001	-1.04755E-004	11	...........	-327.56
	12075	6038	6.00210E-001	1.15194E-001	0.00000E+000	6.01000E-001	-1.07988E-004	11	...........	-327.56
	12081	6041	6.06167E-001	1.14924E-001	0.00000E+000	6.07000E-001	-1.05055E-004	11	...........	-327.56
	12087	6044	6.12169E-001	1.14205E-001	0.00000E+000	6.13000E-001	-1.08388E-004	11	...........	-327.56
	12093	6047	6.18159E-001	1.18184E-001	0.00000E+000	6.19000E-001	-1.03021E-004	11	...........	-327.56
	12099	6050	6.24196E-001	1.04661E-001	0.00000E+000	6.25000E-001	-1.06988E-004	11	...........	-327.56
	12105	6053	6.30127E-001	1.06147E-001	0.00000E+000	6.31000E-001	-1.06488E-004	11	...........	-327.56
	12111	6056	6.36138E-001	1.01680E-001	0.00000E+000	6.37000E-001	-1.08521E-004	11	...........	-327.56
	12117	6059	6.42180E-001	9.53329E-002	0.00000E+000	6.43000E-001	-1.05721E-004	11	...........	-327.56
	12123	6062	6.48193E-001	9.81934E-002	0.00000E+000	6.49000E-001	-1.08121E-004	11	...........	-327.56
	12129	6065	6.54118E-001	9.73279E-002	0.00000E+000	6.55000E-001	-1.08755E-004	11	...........	-327.56
	12135	6068	6.60137E-001	9.20867E-002	0.00000E+000	6.61000E-001	-1.10921E-004	11	...........	-327.56
	12141	6071	6.66155E-001	9.35971E-002	0.00000E+000	6.67000E-001	-1.06188E-004	11	...........	-327.56
	12147	6074	6.72191E-001	8.78056E-002	0.00000E+000	6.73000E-001	-1.07321E-004	11	...........	-327.56
	12153	6077	6.78166E-001	8.71703E-002	0.00000E+000	6.79000E-001	-1.03355E-004	11	...........	-327.56
	12159	6080	6.84106E-001	8.80321E-002	0.00000E+000	6.85000E-001	-1.08255E-004	11	...........	-327.56
	12165	6083	6.90130E-001	8.64941E-002	0.00000E+000	6.91000E-001	-1.07155E-004	11	...........	-327.56
	12171	6086	6.96179E-001	8.44582E-002	0.00000E+000	6.97000E-001	-1.08988E-004	11	...........	-327.56
	12177	6089	7.02180E-001	8.72494E-002	0.00000E+000	7.03000E-001	-1.07421E-004	11	...........	-327.56
	12183	6092	7.08107E-001	8.19625E-002	0.00000E+000	7.09000E-001	-1.07755E-004	11	...........	-327.56
	12189	6095	7.14133E-001	7.97495E-002	0.00000E+000	7.15000E-001	-1.06388E-004	11	...........	-327.56
	12195	6098	7.20119E-001	7.84011E-002	0.00000E+000	7.21000E-001	-1.06421E-004	11	...........	-327.56
	12201	6101	7.26123E-001	7.68007E-002	0.00000E+000	7.27000E-001	-1.01721E-004	11	...........	-327.56
	12207	6104	7.32025E-001	7.57305E-002	0.00000E+000	7.33000E-001	-1.06355E-004	11	...........	-327.56
	12213	6107	7.38074E-001	7.26469E-002	0.00000E+000	7.39000E-001	-1.07955E-004	11	...........	-327.56
	12219	6110	7.44102E-001	7.35271E-002	0.00000E+000	7.45000E-001	-1.07888E-004	11	...........	-327.56
	12225	6113	7.50126E-001	7.24057E-002	0.00000E+000	7.51000E-001	-1.03921E-004	11	...........	-327.56
	12231	6116	7.55995E-001	7.26608E-002	0.00000E+000	7.57000E-001	-1.07921E-004	11	...........	-327.56
	12237	6119	7.62055E-001	7.06113E-002	0.00000E+000	7.63000E-001	-1.02621E-004	11	...........	-327.56
	12243	6122	7.68070E-001	6.79107E-002	0.00000E+000	7.69000E-001	-1.08788E-004	11	...........	-327.56
	12249	6125	7.74107E-001	6.85054E-002	0.00000E+000	7.75000E-001	-1.08021E-004	11	...........	-327.56
	12255	6128	7.80093E-001	6.42294E-002	0.00000E+000	7.81000E-001	-1.06721E-004	11	...........	-327.56
	12261	6131	7.86038E-001	6.31510E-002	0.00000E+000	7.87000E-001	-1.05255E-004	11	...........	-327.56
	12267	6134	7.92044E-001	6.22238E-002	0.00000E+000	7.93000E-001	-1.07788E-004	11	...........	-327.56
	12273	6137	7.98097E-001	6.10124E-002	0.00000E+000	7.99000E-001	-1.04221E-004	11	...........	-327.56
	12279	6140	8.04095E-001	5.97321E-002	0.00000E+000	8.05000E-001	-1.10888E-004	11	...........	-327.56
	12285	6143	8.10016E-001	5.91468E-002	0.00000E+000	8.11000E-001	-1.09055E-004	11	...........	-327.56
	12291	6146	8.16041E-001	5.80852E-002	0.00000E+000	8.17000E-001	-1.10421E-004	11	...........	-327.56
	12297	6149	8.22027E-001	5.62909E-002	0.00000E+000	8.23000E-001	-1.07155E-004	11	...........	-327.56
	12303	6152	8.28046E-001	5.58281E-002	0.00000E+000	8.29000E-001	-1.06421E-004	11	...........	-327.56
	12309	6155	8.33965E-001	5.56745E-002	0.00000E+000	8.35000E-001	-1.05121E-004	11	...........	-327.56
	12315	6158	8.40002E-001	5.45436E-002	0.00000E+000	8.41000E-001	-1.08421E-004	11	...........	-327.56
	12321	6161	8.46024E-001	5.30143E-002	0.00000E+000	8.47000E-001	-1.11121E-004	11	...........	-327.56
	12327	6164	8.52046E-001	5.25103E-002	0.00000E+000	8.53000E-001	-1.10555E-004	11	...........	-327.56
	12333	6167	8.57950E-001	5.18468E-002	0.00000E+000	8.59000E-001	-1.06755E-004	11	...........	-327.56
	12339	6170	8.63970E-001	5.18703E-002	0.00000E+000	8.65000E-001	-1.08521E-004	11	...........	-327.56
	12345	6173	8.69980E-001	5.04650E-002	0.00000E+000	8.71000E-001	-1.04288E-004	11	...........	-327.56
	12351	6176	8.76018E-001	5.11407E-002	0.00000E+000	8.77000E-001	-1.07388E-004	11	...........	-327.56
	12357	6179	8.82028E-001	5.00170E-002	0.00000E+000	8.83000E-001	-1.06921E-004	11	...........	-327.56
	12363	6182	8.87951E-001	5.03552E-002	0.00000E+000	8.89000E-001	-1.04488E-004	11	...........	-327.56
	12369	6185	8.93960E-001	4.91399E-002	0.00000E+000	8.95000E-001	-1.06221E-004	11	...........	-327.56
	12375	6188	9.00004E-001	4.85929E-002	0.00000E+000	9.01000E-001	-1.06355E-004	11	...........	-327.56
	12381	6191	9.06025E-001	4.89388E-002	0.00000E+000	9.07000E-001	-1.03988E-004	11	...........	-327.56
	12387	6194	9.11943E-001	4.79483E-002	0.00000E+000	9.13000E-001	-1.05488E-004	11	...........	-327.56
	12393	6197	9.17954E-001	4.74987E-002	0.00000E+000	9.19000E-001	-1.05721E-004	11	...........	-327.56
	12399	6200	9.23953E-001	4.75108E-002	0.00000E+000	9.25000E-001	-1.06521E-004	11	...........	-327.56
	12405	6203	9.29967E-001	4.69232E-002	0.00000E+000	9.31000E-001	-1.08521E-004	11	...........	-327.56
	12411	6206	9.35931E-001	4.66090E-002	0.00000E+000	9.37000E-001	-1.08555E-004	11	...........	-327.56
	12417	6209	9.41901E-001	4.64471E-002	0.00000E+000	9.43000E-001	-1.06388E-004	11	...........	-327.56
	12423	6212	9.47922E-001	4.59865E-002	0.00000E+000	9.49000E-001	-1.01021E-004	11	...........	-327.56
	12429	6215	9.53950E-001	4.55311E-002	0.00000E+000	9.55000E-001	-1.03788E-004	11	...........	-327.56
	12435	6218	9.59942E-001	4.50938E-002	0.00000E+000	9.61000E-001	-1.04355E-004	11	...........	-327.56
	12441	6221	9.65885E-001	4.47563E-002	0.00000E+000	9.67000E-001	-1.02721E-004	11	...........	-327.56
	12447	6224	9.71905E-001	4.46865E-002	0.00000E+000	9.73000E-001	-1.06755E-004	11	...........	-327.56
	12453	6227	9.77928E-001	4.47676E-002	0.00000E+000	9.79000E-001	-1.06521E-004	11	...........	-327.56
	12459	6230	9.83930E-001	4.47645E-002	0.00000E+000	9.85000E-001	-1.06055E-004	11	...........	-327.56
	12465	6233	9.89850E-001	4.46880E-002	0.00000E+000	9.91000E-001	-1.07855E-004	11	...........	-327.56
	12471	6236	9.95863E-001	4.50228E-002	0.00000E+000	9.97000E-001	-1.05421E-004	11	...........	-327.56
	12477	6239	1.00191E+000	4.56653E-002	0.00000E+000	1.00300E+000	-1.06421E-004	11	...........	-327.56
	12483	6242	1.00792E+000	4.72201E-002	0.00000E+000	1.00900E+000	-1.09088E-004	11	...........	-327.56
	12489	6245	1.01383E+000	4.67233E-002	0.00000E+000	1.01500E+000	-1.07655E-004	11	...........	-327.56
	12495	6248	1.01985E+000	4.73357E-002	0.00000E+000	1.02100E+000	-1.05655E-004	11	...........	-327.56
	12501	6251	1.02587E+000	4.77023E-002	0.00000E+000	1.02700E+000	-1.06288E-004	11	...........	-327.56
	12507	6254	1.03189E+000	4.85599E-002	0.00000E+000	1.03300E+000	-1.07921E-004	11	...........	-327.56
	12513	6257	1.03777E+000	4.93202E-002	0.00000E+000	1.03900E+000	-1.07721E-004	11	...........	-327.56
	12519	6260	1.04380E+000	5.16135E-002	0.00000E+000	1.04500E+000	-1.05688E-004	11	...........	-327.56
	12525	6263	1.04982E+000	5.10844E-002	0.00000E+000	1.05100E+000	-1.05655E-004	11	...........	-327.56
	12531	6266	1.05588E+000	5.17665E-002	0.00000E+000	1.05700E+000	-1.04455E-004	11	...........	-327.56
	12537	6269	1.06183E+000	5.33637E-002	0.00000E+000	1.06300E+000	-1.06988E-004	11	...........	-327.56
	12543	6272	1.06778E+000	5.34758E-002	0.00000E+000	1.06900E+000	-1.06055E-004	11	...........	-327.56
	12549	6275	1.07380E+000	5.44299E-002	0.00000E+000	1.07500E+000	-1.07121E-004	11	...........	-327.56
	12555	6278	1.07984E+000	5.66721E-002	0.00000E+000	1.08100E+000	-1.06488E-004	11	...........	-327.56
	12561	6281	1.08580E+000	5.72092E-002	0.00000E+000	1.08700E+000	-1.05788E-004	11	...........	-327.56
	12567	6284	1.09175E+000	5.80046E-002	0.00000E+000	1.09300E+000	-1.05088E-004	11	...........	-327.56
	12573	6287	1.09777E+000	5.94094E-002	0.00000E+000	1.09900E+000	-1.06188E-004	11	...........	-327.56
	12579	6290	1.10382E+000	6.05559E-002	0.00000E+000	1.10500E+000	-1.06088E-004	11	...........	-327.56
	12585	6293	1.10980E+000	6.16325E-002	0.00000E+000	1.11100E+000	-1.08255E-004	11	...........	-327.56
	12591	6296	1.11570E+000	6.26180E-002	0.00000E+000	1.11700E+000	-1.07088E-004	11	...........	-327.56
	12597	6299	1.12174E+000	6.30082E-002	0.00000E+000	1.12300E+000	-1.07121E-004	11	...........	-327.56
	12603	6302	1.12773E+000	6.36865E-002	0.00000E+000	1.12900E+000	-1.05455E-004	11	...........	-327.56
	12609	6305	1.13372E+000	6.39646E-002	0.00000E+000	1.13500E+000	-1.07588E-004	11	...........	-327.56
	12615	6308	1.13963E+000	6.39114E-002	0.00000E+000	1.14100E+000	-1.04421E-004	11	...........	-327.56
	12621	6311	1.14568E+000	6.34129E-002	0.00000E+000	1.14700E+000	-1.08755E-004	11	...........	-327.56
	12627	6314	1.15168E+000	6.25129E-002	0.00000E+000	1.15300E+000	-1.06788E-004	11	...........	-327.56
	12633	6317	1.15773E+000	6.14765E-002	0.00000E+000	1.15900E+000	-1.10921E-004	11	...........	-327.56
	12639	6320	1.16374E+000	6.01624E-002	0.00000E+000	1.16500E+000	-1.04188E-004	11	...........	-327.56
	12645	6323	1.16964E+000	5.82804E-002	0.00000E+000	1.17100E+000	-1.08588E-004	11	...........	-327.56
	12651	6326	1.17567E+000	5.66771E-002	0.00000E+000	1.17700E+000	-1.05155E-004	11	...........	-327.56
	12657	6329	1.18170E+000	5.48221E-002	0.00000E+000	1.18300E+000	-1.06688E-004	11	...........	-327.56
	12663	6332	1.18772E+000	5.32085E-002	0.00000E+000	1.18900E+000	-1.04021E-004	11	...........	-327.56
	12669	6335	1.19360E+000	5.14680E-002	0.00000E+000	1.19500E+000	-1.07821E-004	11	...........	-327.56
	12675	6338	1.19965E+000	5.06281E-002	0.00000E+000	1.20100E+000	-1.04588E-004	11	...........	-327.56
	12681	6341	1.20571E+000	5.00032E-002	0.00000E+000	1.20700E+000	-1.07488E-004	11	...........	-327.56
	12687	6344	1.21172E+000	5.01773E-002	0.00000E+000	1.21300E+000	-1.04521E-004	11	...........	-327.56
	12693	6347	1.21757E+000	5.09919E-002	0.00000E+000	1.21900E+000	-1.05621E-004	11	...........	-327.56
	12699	6350	1.22363E+000	5.25596E-002	0.00000E+000	1.22500E+000	-1.07255E-004	11	...........	-327.56
	12705	6353	1.22965E+000	5.47412E-002	0.00000E+000	1.23100E+000	-1.08521E-004	11	...........	-327.56
	12711	6356	1.23568E+000	5.94338E-002	0.00000E+000	1.23700E+000	-1.04588E-004	11	...........	-327.56
	12717	6359	1.24165E+000	6.21640E-002	0.00000E+000	1.24300E+000	-1.05488E-004	11	...........	-327.56
	12723	6362	1.24760E+000	6.61012E-002	0.00000E+000	1.24900E+000	-1.03988E-004	11	...........	-327.56
	12729	6365	1.25360E+000	7.05183E-002	0.00000E+000	1.25500E+000	-1.07788E-004	11	...........	-327.56
	12735	6368	1.25964E+000	7.55720E-002	0.00000E+000	1.26100E+000	-1.09455E-004	11	...........	-327.56
	12741	6371	1.26561E+000	8.13949E-002	0.00000E+000	1.26700E+000	-1.04655E-004	11	...........	-327.56
	12747	6374	1.27154E+000	8.76494E-002	0.00000E+000	1.27300E+000	-1.04788E-004	11	...........	-327.56
	12753	6377	1.27755E+000	9.53476E-002	0.00000E+000	1.27900E+000	-1.07088E-004	11	...........	-327.56
	12759	6380	1.28357E+000	1.01986E-001	0.00000E+000	1.28500E+000	-1.03321E-004	11	...........	-327.56
	12765	6383	1.28956E+000	1.09816E-001	0.00000E+000	1.29100E+000	-1.07555E-004	11	...........	-327.56
	12771	6386	1.29546E+000	1.18183E-001	0.00000E+000	1.29700E+000	-1.08355E-004	11	...........	-327.56
	12777	6389	1.30147E+000	1.27178E-001	0.00000E+000	1.30300E+000	-1.05321E-004	11	...........	-327.56
	12783	6392	1.30750E+000	1.35980E-001	0.00000E+000	1.30900E+000	-1.07755E-004	11	...........	-327.56
	12789	6395	1.31350E+000	1.45981E-001	0.00000E+000	1.31500E+000	-1.05055E-004	11	...........	-327.56
	12795	6398	1.31937E+000	1.55892E-001	0.00000E+000	1.32100E+000	-1.05155E-004	11	...........	-327.56
	12801	6401	1.32540E+000	1.66150E-001	0.00000E+000	1.32700E+000	-1.03455E-004	11	...........	-327.56
	12807	6404	1.33137E+000	1.76439E-001	0.00000E+000	1.33300E+000	-1.07221E-004	11	...........	-327.56
	12813	6407	1.33738E+000	1.88747E-001	0.00000E+000	1.33900E+000	-1.01588E-004	11	...........	-327.56
	12819	6410	1.34333E+000	1.98535E-001	0.00000E+000	1.34500E+000	-1.08655E-004	11	...........	-327.56
	12825	6413	1.34925E+000	2.09393E-001	0.00000E+000	1.35100E+000	-1.04055E-004	11	...........	-327.56
	12831	6416	1.35524E+000	2.22449E-001	0.00000E+000	1.35700E+000	-1.04688E-004	11	...........	-327.56
	12837	6419	1.36126E+000	2.33760E-001	0.00000E+000	1.36300E+000	-1.03921E-004	11	...........	-327.56
	12843	6422	1.36724E+000	2.44821E-001	0.00000E+000	1.36900E+000	-1.05155E-004	11	...........	-327.56
	12849	6425	1.37316E+000	2.56553E-001	0.00000E+000	1.37500E+000	-1.00488E-004	11	...........	-327.56
	12855	6428	1.37915E+000	2.68048E-001	0.00000E+000	1.38100E+000	-1.03321E-004	11	...........	-327.56
	12861	6431	1.38548E+000	2.80567E-001	0.00000E+000	1.38700E+000	-1.07655E-004	12	...........	-327.56
	12867	6434	1.39145E+000	2.92785E-001	0.00000E+000	1.39300E+000	-1.07021E-004	12	...........	-327.56
	12873	6437	1.39737E+000	3.05037E-001	0.00000E+000	1.39900E+000	-1.07255E-004	12	...........	-327.56
	12879	6440	1.40340E+000	3.17045E-001	0.00000E+000	1.40500E+000	-1.07488E-004	12	...........	-327.56
	12885	6443	1.40946E+000	3.29511E-001	0.00000E+000	1.41100E+000	-1.07388E-004	12	...........	-327.56
	12891	6446	1.41540E+000	3.42201E-001	0.00000E+000	1.41700E+000	-1.08955E-004	12	...........	-327.56
	12897	6449	1.42132E+000	3.54587E-001	0.00000E+000	1.42300E+000	-1.08421E-004	12	...........	-327.56
	12903	6452	1.42735E+000	3.67008E-001	0.00000E+000	1.42900E+000	-1.06721E-004	12	...........	-327.56
	12909	6455	1.43336E+000	3.79707E-001	0.00000E+000	1.43500E+000	-1.04921E-004	12	...........	-327.56
	12915	6458	1.43936E+000	3.91940E-001	0.00000E+000	1.44100E+000	-1.11655E-004	12	...........	-327.56
	12921	6461	1.44535E+000	4.04112E-001	0.00000E+000	1.44700E+000	-1.03655E-004	12	...........	-327.56
	12927	6464	1.45126E+000	4.16787E-001	0.00000E+000	1.45300E+000	-1.07821E-004	12	...........	-327.56
	12933	6467	1.45727E+000	4.29156E-001	0.00000E+000	1.45900E+000	-1.04721E-004	12	...........	-327.56
	12939	6470	1.46329E+000	4.41317E-001	0.00000E+000	1.46500E+000	-1.05888E-004	12	...........	-327.56
	12945	6473	1.46930E+000	4.53126E-001	0.00000E+000	1.47100E+000	-1.03988E-004	12	...........	-327.56
	12951	6476	1.47517E+000	4.66291E-001	0.00000E+000	1.47700E+000	-1.06521E-004	12	...........	-327.56
	12957	6479	1.48122E+000	4.79459E-001	0.00000E+000	1.48300E+000	-1.07288E-004	12	...........	-327.56
	12963	6482	1.48723E+000	4.92754E-001	0.00000E+000	1.48900E+000	-1.05521E-004	12	...........	-327.56
	12969	6485	1.49325E+000	5.03794E-001	0.00000E+000	1.49500E+000	-1.08655E-004	12	...........	-327.56
	12975	6488	1.49915E+000	5.15792E-001	0.00000E+000	1.50100E+000	-1.05455E-004	12	...........	-327.56
	12981	6491	1.50516E+000	5.29922E-001	0.00000E+000	1.50700E+000	-1.07688E-004	12	...........	-327.56
	12987	6494	1.51117E+000	5.39483E-001	0.00000E+000	1.51300E+000	-1.03688E-004	12	...........	-327.56
	12993	6497	1.51720E+000	5.53729E-001	0.00000E+000	1.51900E+000	-1.04888E-004	12	...........	-327.56
	12999	6500	1.52317E+000	5.69654E-001	0.00000E+000	1.52500E+000	-1.07955E-004	12	...........	-327.56
	13005	6503	1.52911E+000	5.85900E-001	0.00000E+000	1.53100E+000	-1.05755E-004	12	...........	-327.56
	13011	6506	1.53511E+000	5.99097E-001	0.00000E+000	1.53700E+000	-1.05355E-004	12	...........	-327.56
	13017	6509	1.54110E+000	6.15985E-001	0.00000E+000	1.54300E+000	-1.06055E-004	12	...........	-327.56
	13023	6512	1.54710E+000	6.31344E-001	0.00000E+000	1.54900E+000	-1.08221E-004	12	...........	-327.56
	13029	6515	1.55301E+000	6.50854E-001	0.00000E+000	1.55500E+000	-1.04921E-004	12	...........	-327.56
	13035	6518	1.55902E+000	6.65668E-001	0.00000E+000	1.56100E+000	-1.06821E-004	12	...........	-327.56
	13041	6521	1.56505E+000	6.79511E-001	0.00000E+000	1.56700E+000	-1.07888E-004	12	...........	-327.56
	13047	6524	1.57106E+000	6.97442E-001	0.00000E+000	1.57300E+000	-1.06821E-004	12	...........	-327.56
	13053	6527	1.57695E+000	7.15261E-001	0.00000E+000	1.57900E+000	-1.05988E-004	12	...........	-327.56
	13059	6530	1.58297E+000	7.28589E-001	0.00000E+000	1.58500E+000	-1.07221E-004	12	...........	-327.56
	13065	6533	1.58898E+000	7.50870E-001	0.00000E+000	1.59100E+000	-1.04055E-004	12	...........	-327.56
	13071	6536	1.59497E+000	7.72698E-001	0.00000E+000	1.59700E+000	-1.03921E-004	12	...........	-327.56
	13077	6539	1.60085E+000	7.84258E-001	0.00000E+000	1.60300E+000	-1.13421E-004	12	...........	-327.56
	13083	6542	1.60687E+000	8.07528E-001	0.00000E+000	1.60900E+000	-1.03555E-004	12	...........	-327.56
	13089	6545	1.61288E+000	8.20486E-001	0.00000E+000	1.61500E+000	-1.07288E-004	12	...........	-327.56
	13095	6548	1.61892E+000	8.37932E-001	0.00000E+000	1.62100E+000	-1.07255E-004	12	...........	-327.56
	13101	6551	1.62489E+000	8.63149E-001	0.00000E+000	1.62700E+000	-1.10055E-004	12	...........	-327.56
	13107	6554	1.63080E+000	8.90093E-001	0.00000E+000	1.63300E+000	-1.05321E-004	12	...........	-327.56
	13113	6557	1.63680E+000	9.08365E-001	0.00000E+000	1.63900E+000	-1.07221E-004	12	...........	-327.56
	13119	6560	1.64281E+000	9.16995E-001	0.00000E+000	1.64500E+000	-1.06321E-004	12	...........	-327.56
	13125	6563	1.64880E+000	9.43970E-001	0.00000E+000	1.65100E+000	-1.08088E-004	12	...........	-327.56
	13131	6566	1.65473E+000	9.63258E-001	0.00000E+000	1.65700E+000	-1.05855E-004	12	...........	-327.56
	13137	6569	1.66074E+000	9.79160E-001	0.00000E+000	1.66300E+000	-1.04955E-004	12	...........	-327.56
	13143	6572	1.66674E+000	1.00552E+000	0.00000E+000	1.66900E+000	-1.08288E-004	12	...........	-327.56
	13149	6575	1.67274E+000	1.01868E+000	0.00000E+000	1.67500E+000	-1.02355E-004	12	...........	-327.56
	13155	6578	1.67866E+000	1.03482E+000	0.00000E+000	1.68100E+000	-1.06655E-004	12	...........	-327.56
	13161	6581	1.68472E+000	1.04757E+000	0.00000E+000	1.68700E+000	-1.07655E-004	12	...........	-327.56
	13167	6584	1.69068E+000	1.06076E+000	0.00000E+000	1.69300E+000	-1.08388E-004	12	...........	-327.56
	13173	6587	1.69669E+000	1.09784E+000	0.00000E+000	1.69900E+000	-1.02388E-004	12	...........	-327.56
	13174	6587.5	1.69769E+000	1.09766E+000	0.00000E+000	1.70000E+000	-1.07821E-004	12	...........	-327.56