File: testing/data/240902_10_MCL13_cswWE_CV2_750C_CO2.DTA
EXPLAIN
TAG	CV
TITLE	LABEL	Cyclic Voltammetry	Test Identifier
DATE	LABEL	9/3/2024	Date
TIME	LABEL	3:51:18	Time
NOTES	NOTES	5	Notes...
	cswWE - carbon steel wire
cspWE - carbon steel plate 2x2 tapered

Carbon steel plate counter electrode
Carbon steel wire reference electrode
PSTAT	PSTAT	REF3000-48128	Potentiostat
VINIT	POTEN	0.00000E+000	T	Initial E (V)
VLIMIT1	POTEN	1.70000E+000	F	Scan Limit 1 (V)
VLIMIT2	POTEN	-7.00000E-001	F	Scan Limit 2 (V)
VFINAL	POTEN	1.70000E+000	F	Final E (V)
SCANRATE	QUANT	2.00000E+000	Scan Rate (mV/s)
STEPSIZE	QUANT	1.00000E+000	Step Size (mV)
CYCLES	IQUANT	2	Cycles (#)
IMODE	SELECTOR	0	I/E Range Mode
IRANGE	QUANT	3.00000E-001	Max Current (mA)
AREA	QUANT	1.00000E+000	Sample Area (cm^2)
EQDELAY	QUANT	0.00000E+000	Equil. Time (s)
IRCOMP	SELECTOR	0	IRComp
PFCOR	QUANT	5.00000E+001	PF Corr. (ohm)
SAMPLINGMODE	SELECTOR	1	Sampling Mode
EOC	QUANT	0.2158838	Open Circuit (V)
ELECTRODETYPE	SELECTOR	0	Electrode Type
STRIPPING	TOGGLE	F	Used for Stripping
SEQUENCER	TOGGLE	TRUE	Run as Sequence
PSTATMODEL	IQUANT	5	Pstat Model
PSTATSECTION	LABEL	REF3000-48128	Pstat Section
PSTATSERIALNO	LABEL	48128	Pstat Serial Number
CTRLMODE	IQUANT	1	Control Mode
ELECTROMETER	IQUANT	0	RE=0 or CS=1
IESTAB	IQUANT	2	I/E Stability
CASPEED	IQUANT	4	Control Amp Speed
CONVENTION	IQUANT	1	Current Convention
ICHRANGE	IQUANT	2	Ich Range
ICHRANGEMODE	TOGGLE	F	Ich Auto Range
ICHOFFSETENABLE	TOGGLE	F	Ich Offset Enable
ICHOFFSET	QUANT	0	Ich Offset (V)
ICHFILTER	IQUANT	3	Ich Filter
VCHRANGE	IQUANT	2	Vch Range
VCHRANGEMODE	TOGGLE	F	Vch Auto Range
VCHOFFSETENABLE	TOGGLE	F	Vch Offset Enable
VCHOFFSET	QUANT	0	Vch Offset (V)
VCHFILTER	IQUANT	3	Vch Filter
ACHRANGE	IQUANT	2	Ach Range
ACHOFFSETENABLE	TOGGLE	F	Ach Offset Enable
ACHOFFSET	QUANT	0	Ach Offset (V)
ACHFILTER	IQUANT	1	Ach Filter
IERANGELOWERLIMIT	IQUANT	2	I/E Range Lower Limit
IERANGEMODE	TOGGLE	T	I/E AutoRange
IERANGE	IQUANT	9	I/E Range
POSFEEDENABLE	TOGGLE	F	Positive Feedback IR Comp
POSFEEDRESISTANCE	QUANT	0	Positive Feedback Resistance (ohm)
ACHSELECT	IQUANT	4	Ach Select
SENSECABLEID	IQUANT	14	Sense Cable ID
PWRCABLEID	IQUANT	7	Power Cable ID
DCCALDATE	LABEL	8/16/2024	DC Calibration Date
ACCALDATE	LABEL	8/16/2024	AC Calibration Date
THERMOSELECT	IQUANT	1	Thermo Select
FRAMEWORKVERSION	LABEL	7.10.3	Framework Version
INSTRUMENTVERSION	LABEL	4.91	Instrument Version
COMMVERSION	LABEL	5.10	Communications Version
CPUPLDVERSION	LABEL	6.00	CPU PLD Version
CTRLPLDVERSION	LABEL	3.21	CTRL PLD Version
PSTATPLDVERSION	LABEL	0.00	PSTAT PLD Version
COMPLIANCEVOLTAGE	IQUANT	0	Compliance Voltage
CURVE1	TABLE
	Pt	T	Vf	Im	Vu	Sig	Ach	IERange	Over	Temp
	#	s	V vs. Ref.	A	V	V	V	#	bits	deg C
	0	0.5	2.15347E-001	2.13050E-003	0.00000E+000	2.15900E-001	-9.53881E-005	9	...........	-327.56
	8	4.5	2.23470E-001	6.67215E-003	0.00000E+000	2.23900E-001	-9.34214E-005	10	...........	-327.56
	16	8.5	2.31465E-001	9.49008E-003	0.00000E+000	2.31900E-001	-9.45214E-005	10	...........	-327.56
	24	12.5	2.39466E-001	1.14925E-002	0.00000E+000	2.39900E-001	-9.43548E-005	10	...........	-327.56
	32	16.5	2.47372E-001	1.29061E-002	0.00000E+000	2.47900E-001	-9.79214E-005	10	...........	-327.56
	40	20.5	2.55384E-001	1.40683E-002	0.00000E+000	2.55900E-001	-9.42214E-005	10	...........	-327.56
	48	24.5	2.63396E-001	1.47054E-002	0.00000E+000	2.63900E-001	-1.05355E-004	10	...........	-327.56
	56	28.5	2.71311E-001	1.54158E-002	0.00000E+000	2.71900E-001	-1.04521E-004	10	...........	-327.56
	64	32.5	2.79343E-001	1.56701E-002	0.00000E+000	2.79900E-001	-1.05288E-004	10	...........	-327.56
	72	36.5	2.87376E-001	1.58502E-002	0.00000E+000	2.87900E-001	-1.03155E-004	10	...........	-327.56
	80	40.5	2.95264E-001	1.59062E-002	0.00000E+000	2.95900E-001	-1.08221E-004	10	...........	-327.56
	88	44.5	3.03315E-001	1.58615E-002	0.00000E+000	3.03900E-001	-1.02121E-004	10	...........	-327.56
	96	48.5	3.11293E-001	1.57865E-002	0.00000E+000	3.11900E-001	-1.05921E-004	10	...........	-327.56
	104	52.5	3.19298E-001	1.56688E-002	0.00000E+000	3.19900E-001	-1.06255E-004	10	...........	-327.56
	112	56.5	3.27254E-001	1.55284E-002	0.00000E+000	3.27900E-001	-1.04288E-004	10	...........	-327.56
	120	60.5	3.35297E-001	1.50184E-002	0.00000E+000	3.35900E-001	-1.04455E-004	10	...........	-327.56
	128	64.5	3.43328E-001	1.43199E-002	0.00000E+000	3.43900E-001	-1.04021E-004	10	...........	-327.56
	136	68.5	3.51253E-001	1.34183E-002	0.00000E+000	3.51900E-001	-1.01788E-004	10	...........	-327.56
	144	72.5	3.59284E-001	1.27802E-002	0.00000E+000	3.59900E-001	-1.01555E-004	10	...........	-327.56
	152	76.5	3.67328E-001	1.25554E-002	0.00000E+000	3.67900E-001	-1.07021E-004	10	...........	-327.56
	160	80.5	3.75244E-001	1.27537E-002	0.00000E+000	3.75900E-001	-1.03521E-004	10	...........	-327.56
	168	84.5	3.83241E-001	1.27442E-002	0.00000E+000	3.83900E-001	-1.04388E-004	10	...........	-327.56
	176	88.5	3.91309E-001	1.24569E-002	0.00000E+000	3.91900E-001	-1.05955E-004	10	...........	-327.56
	184	92.5	3.99217E-001	1.24329E-002	0.00000E+000	3.99900E-001	-1.04588E-004	10	...........	-327.56
	192	96.5	4.07243E-001	1.25614E-002	0.00000E+000	4.07900E-001	-1.07821E-004	10	...........	-327.56
	200	100.5	4.15293E-001	1.29367E-002	0.00000E+000	4.15900E-001	-1.04888E-004	10	...........	-327.56
	208	104.5	4.23196E-001	1.30922E-002	0.00000E+000	4.23900E-001	-1.04655E-004	10	...........	-327.56
	216	108.5	4.31224E-001	1.33243E-002	0.00000E+000	4.31900E-001	-1.03488E-004	10	...........	-327.56
	224	112.5	4.39262E-001	1.33151E-002	0.00000E+000	4.39900E-001	-1.07788E-004	10	...........	-327.56
	232	116.5	4.47264E-001	1.35029E-002	0.00000E+000	4.47900E-001	-1.02188E-004	10	...........	-327.56
	240	120.5	4.55193E-001	1.36459E-002	0.00000E+000	4.55900E-001	-1.03688E-004	10	...........	-327.56
	248	124.5	4.63235E-001	1.37053E-002	0.00000E+000	4.63900E-001	-1.06455E-004	10	...........	-327.56
	256	128.5	4.71260E-001	1.37333E-002	0.00000E+000	4.71900E-001	-1.04555E-004	10	...........	-327.56
	264	132.5	4.79182E-001	1.37848E-002	0.00000E+000	4.79900E-001	-1.03121E-004	10	...........	-327.56
	272	136.5	4.87201E-001	1.38181E-002	0.00000E+000	4.87900E-001	-1.02055E-004	10	...........	-327.56
	280	140.5	4.95231E-001	1.38367E-002	0.00000E+000	4.95900E-001	-1.03255E-004	10	...........	-327.56
	288	144.5	5.03154E-001	1.38475E-002	0.00000E+000	5.03900E-001	-1.04821E-004	10	...........	-327.56
	296	148.5	5.11168E-001	1.39109E-002	0.00000E+000	5.11900E-001	-1.03388E-004	10	...........	-327.56
	304	152.5	5.19165E-001	1.39582E-002	0.00000E+000	5.19900E-001	-1.04055E-004	10	...........	-327.56
	312	156.5	5.27067E-001	1.40122E-002	0.00000E+000	5.27900E-001	-1.01121E-004	10	...........	-327.56
	320	160.5	5.35103E-001	1.40081E-002	0.00000E+000	5.35900E-001	-1.00855E-004	10	...........	-327.56
	328	164.5	5.43160E-001	1.40270E-002	0.00000E+000	5.43900E-001	-1.02988E-004	10	...........	-327.56
	336	168.5	5.51062E-001	1.40885E-002	0.00000E+000	5.51900E-001	-1.01321E-004	10	...........	-327.56
	344	172.5	5.59102E-001	1.41226E-002	0.00000E+000	5.59900E-001	-1.03221E-004	10	...........	-327.56
	352	176.5	5.67124E-001	1.40907E-002	0.00000E+000	5.67900E-001	-9.98881E-005	10	...........	-327.56
	360	180.5	5.75112E-001	1.41304E-002	0.00000E+000	5.75900E-001	-9.99548E-005	10	...........	-327.56
	368	184.5	5.83056E-001	1.41652E-002	0.00000E+000	5.83900E-001	-9.83881E-005	10	...........	-327.56
	376	188.5	5.91109E-001	1.41917E-002	0.00000E+000	5.91900E-001	-1.00821E-004	10	...........	-327.56
	384	192.5	5.99108E-001	1.41462E-002	0.00000E+000	5.99900E-001	-9.90881E-005	10	...........	-327.56
	392	196.5	6.07047E-001	1.42292E-002	0.00000E+000	6.07900E-001	-1.04755E-004	10	...........	-327.56
	400	200.5	6.15057E-001	1.42943E-002	0.00000E+000	6.15900E-001	-9.70548E-005	10	...........	-327.56
	408	204.5	6.23081E-001	1.42517E-002	0.00000E+000	6.23900E-001	-9.85214E-005	10	...........	-327.56
	416	208.5	6.31006E-001	1.42529E-002	0.00000E+000	6.31900E-001	-1.02121E-004	10	...........	-327.56
	424	212.5	6.39030E-001	1.42243E-002	0.00000E+000	6.39900E-001	-9.90548E-005	10	...........	-327.56
	432	216.5	6.47070E-001	1.41898E-002	0.00000E+000	6.47900E-001	-1.00288E-004	10	...........	-327.56
	440	220.5	6.54998E-001	1.41893E-002	0.00000E+000	6.55900E-001	-1.00755E-004	10	...........	-327.56
	448	224.5	6.63025E-001	1.41318E-002	0.00000E+000	6.63900E-001	-1.00521E-004	10	...........	-327.56
	456	228.5	6.71053E-001	1.40839E-002	0.00000E+000	6.71900E-001	-9.74214E-005	10	...........	-327.56
	464	232.5	6.78974E-001	1.40392E-002	0.00000E+000	6.79900E-001	-1.00588E-004	10	...........	-327.56
	472	236.5	6.86993E-001	1.40395E-002	0.00000E+000	6.87900E-001	-1.02455E-004	10	...........	-327.56
	480	240.5	6.95034E-001	1.39585E-002	0.00000E+000	6.95900E-001	-1.02288E-004	10	...........	-327.56
	488	244.5	7.03045E-001	1.38777E-002	0.00000E+000	7.03900E-001	-1.02055E-004	10	...........	-327.56
	496	248.5	7.10989E-001	1.38177E-002	0.00000E+000	7.11900E-001	-9.98881E-005	10	...........	-327.56
	504	252.5	7.18975E-001	1.37472E-002	0.00000E+000	7.19900E-001	-9.85214E-005	10	...........	-327.56
	512	256.5	7.26994E-001	1.36414E-002	0.00000E+000	7.27900E-001	-1.02221E-004	10	...........	-327.56
	520	260.5	7.34916E-001	1.35582E-002	0.00000E+000	7.35900E-001	-1.05688E-004	10	...........	-327.56
	528	264.5	7.42940E-001	1.34439E-002	0.00000E+000	7.43900E-001	-1.01788E-004	10	...........	-327.56
	536	268.5	7.50985E-001	1.33934E-002	0.00000E+000	7.51900E-001	-9.93214E-005	10	...........	-327.56
	544	272.5	7.58901E-001	1.32710E-002	0.00000E+000	7.59900E-001	-1.07188E-004	10	...........	-327.56
	552	276.5	7.66937E-001	1.32021E-002	0.00000E+000	7.67900E-001	-1.04321E-004	10	...........	-327.56
	560	280.5	7.74979E-001	1.30458E-002	0.00000E+000	7.75900E-001	-1.00355E-004	10	...........	-327.56
	568	284.5	7.82874E-001	1.29834E-002	0.00000E+000	7.83900E-001	-1.02921E-004	10	...........	-327.56
	576	288.5	7.90905E-001	1.28735E-002	0.00000E+000	7.91900E-001	-1.01621E-004	10	...........	-327.56
	584	292.5	7.98954E-001	1.28065E-002	0.00000E+000	7.99900E-001	-1.01255E-004	10	...........	-327.56
	592	296.5	8.06867E-001	1.27428E-002	0.00000E+000	8.07900E-001	-1.02288E-004	10	...........	-327.56
	600	300.5	8.14893E-001	1.26497E-002	0.00000E+000	8.15900E-001	-1.02488E-004	10	...........	-327.56
	608	304.5	8.22882E-001	1.26257E-002	0.00000E+000	8.23900E-001	-1.00021E-004	10	...........	-327.56
	616	308.5	8.30898E-001	1.25425E-002	0.00000E+000	8.31900E-001	-1.04955E-004	10	...........	-327.56
	624	312.5	8.38823E-001	1.25569E-002	0.00000E+000	8.39900E-001	-1.06855E-004	10	...........	-327.56
	632	316.5	8.46875E-001	1.25560E-002	0.00000E+000	8.47900E-001	-1.01255E-004	10	...........	-327.56
	640	320.5	8.54885E-001	1.25602E-002	0.00000E+000	8.55900E-001	-1.05621E-004	10	...........	-327.56
	648	324.5	8.62796E-001	1.26310E-002	0.00000E+000	8.63900E-001	-1.02455E-004	10	...........	-327.56
	656	328.5	8.70823E-001	1.26949E-002	0.00000E+000	8.71900E-001	-1.03655E-004	10	...........	-327.56
	664	332.5	8.78866E-001	1.28081E-002	0.00000E+000	8.79900E-001	-1.03355E-004	10	...........	-327.56
	672	336.5	8.86766E-001	1.29973E-002	0.00000E+000	8.87900E-001	-1.06355E-004	10	...........	-327.56
	680	340.5	8.94787E-001	1.32239E-002	0.00000E+000	8.95900E-001	-1.01188E-004	10	...........	-327.56
	688	344.5	9.02838E-001	1.34705E-002	0.00000E+000	9.03900E-001	-1.02455E-004	10	...........	-327.56
	696	348.5	9.10748E-001	1.37750E-002	0.00000E+000	9.11900E-001	-1.00188E-004	10	...........	-327.56
	704	352.5	9.18761E-001	1.40848E-002	0.00000E+000	9.19900E-001	-9.86548E-005	10	...........	-327.56
	712	356.5	9.26754E-001	1.45968E-002	0.00000E+000	9.27900E-001	-1.02588E-004	10	...........	-327.56
	720	360.5	9.34657E-001	1.51362E-002	0.00000E+000	9.35900E-001	-1.00955E-004	10	...........	-327.56
	728	364.5	9.42689E-001	1.59571E-002	0.00000E+000	9.43900E-001	-1.05655E-004	10	...........	-327.56
	736	368.5	9.50718E-001	1.67407E-002	0.00000E+000	9.51900E-001	-1.02355E-004	10	...........	-327.56
	744	372.5	9.58710E-001	1.77876E-002	0.00000E+000	9.59900E-001	-1.06655E-004	10	...........	-327.56
	752	376.5	9.66637E-001	1.90591E-002	0.00000E+000	9.67900E-001	-1.01721E-004	10	...........	-327.56
	760	380.5	9.74641E-001	2.03662E-002	0.00000E+000	9.75900E-001	-1.02755E-004	10	...........	-327.56
	768	384.5	9.82649E-001	2.16461E-002	0.00000E+000	9.83900E-001	-1.00755E-004	10	...........	-327.56
	776	388.5	9.90562E-001	2.32376E-002	0.00000E+000	9.91900E-001	-1.06588E-004	10	...........	-327.56
	784	392.5	9.98565E-001	2.47105E-002	0.00000E+000	9.99900E-001	-1.02855E-004	10	...........	-327.56
	792	396.5	1.00657E+000	2.63322E-002	0.00000E+000	1.00790E+000	-1.04455E-004	10	...........	-327.56
	800	400.5	1.01478E+000	2.80835E-002	0.00000E+000	1.01590E+000	-1.00388E-004	11	...........	-327.56
	808	404.5	1.02279E+000	2.97698E-002	0.00000E+000	1.02390E+000	-1.03721E-004	11	...........	-327.56
	816	408.5	1.03081E+000	3.13519E-002	0.00000E+000	1.03190E+000	-1.03121E-004	11	...........	-327.56
	824	412.5	1.03872E+000	3.29922E-002	0.00000E+000	1.03990E+000	-1.02488E-004	11	...........	-327.56
	832	416.5	1.04675E+000	3.44176E-002	0.00000E+000	1.04790E+000	-1.02755E-004	11	...........	-327.56
	840	420.5	1.05479E+000	3.58045E-002	0.00000E+000	1.05590E+000	-1.01955E-004	11	...........	-327.56
	848	424.5	1.06270E+000	3.72252E-002	0.00000E+000	1.06390E+000	-1.03821E-004	11	...........	-327.56
	856	428.5	1.07073E+000	3.85481E-002	0.00000E+000	1.07190E+000	-1.02188E-004	11	...........	-327.56
	864	432.5	1.07878E+000	3.94233E-002	0.00000E+000	1.07990E+000	-1.02755E-004	11	...........	-327.56
	872	436.5	1.08677E+000	3.99359E-002	0.00000E+000	1.08790E+000	-1.00688E-004	11	...........	-327.56
	880	440.5	1.09470E+000	3.97847E-002	0.00000E+000	1.09590E+000	-1.02821E-004	11	...........	-327.56
	888	444.5	1.10274E+000	3.90124E-002	0.00000E+000	1.10390E+000	-1.04221E-004	11	...........	-327.56
	896	448.5	1.11078E+000	3.71520E-002	0.00000E+000	1.11190E+000	-1.02221E-004	11	...........	-327.56
	904	452.5	1.11869E+000	3.47001E-002	0.00000E+000	1.11990E+000	-1.05688E-004	11	...........	-327.56
	912	456.5	1.12669E+000	3.21120E-002	0.00000E+000	1.12790E+000	-1.03421E-004	11	...........	-327.56
	920	460.5	1.13471E+000	2.90989E-002	0.00000E+000	1.13590E+000	-1.03555E-004	11	...........	-327.56
	928	464.5	1.14264E+000	2.75775E-002	0.00000E+000	1.14390E+000	-1.04055E-004	11	...........	-327.56
	936	468.5	1.15067E+000	2.67602E-002	0.00000E+000	1.15190E+000	-1.03521E-004	11	...........	-327.56
	944	472.5	1.15871E+000	2.68335E-002	0.00000E+000	1.15990E+000	-9.86214E-005	11	...........	-327.56
	952	476.5	1.16661E+000	2.72737E-002	0.00000E+000	1.16790E+000	-1.04055E-004	11	...........	-327.56
	960	480.5	1.17466E+000	2.87551E-002	0.00000E+000	1.17590E+000	-1.01955E-004	11	...........	-327.56
	968	484.5	1.18268E+000	3.06827E-002	0.00000E+000	1.18390E+000	-1.02188E-004	11	...........	-327.56
	976	488.5	1.19059E+000	3.29741E-002	0.00000E+000	1.19190E+000	-1.02688E-004	11	...........	-327.56
	984	492.5	1.19862E+000	3.56123E-002	0.00000E+000	1.19990E+000	-1.08088E-004	11	...........	-327.56
	992	496.5	1.20666E+000	3.89169E-002	0.00000E+000	1.20790E+000	-1.05388E-004	11	...........	-327.56
	1000	500.5	1.21465E+000	4.27457E-002	0.00000E+000	1.21590E+000	-1.03688E-004	11	...........	-327.56
	1008	504.5	1.22259E+000	4.71213E-002	0.00000E+000	1.22390E+000	-1.01021E-004	11	...........	-327.56
	1016	508.5	1.23061E+000	5.22486E-002	0.00000E+000	1.23190E+000	-1.06755E-004	11	...........	-327.56
	1024	512.5	1.23861E+000	5.79743E-002	0.00000E+000	1.23990E+000	-1.04321E-004	11	...........	-327.56
	1032	516.5	1.24653E+000	6.40231E-002	0.00000E+000	1.24790E+000	-1.02555E-004	11	...........	-327.56
	1040	520.5	1.25456E+000	7.03911E-002	0.00000E+000	1.25590E+000	-1.01455E-004	11	...........	-327.56
	1048	524.5	1.26258E+000	7.72650E-002	0.00000E+000	1.26390E+000	-1.06155E-004	11	...........	-327.56
	1056	528.5	1.27048E+000	8.58510E-002	0.00000E+000	1.27190E+000	-1.05221E-004	11	...........	-327.56
	1064	532.5	1.27848E+000	9.49686E-002	0.00000E+000	1.27990E+000	-1.05888E-004	11	...........	-327.56
	1072	536.5	1.28650E+000	1.04403E-001	0.00000E+000	1.28790E+000	-9.92881E-005	11	...........	-327.56
	1080	540.5	1.29437E+000	1.15361E-001	0.00000E+000	1.29590E+000	-1.03188E-004	11	...........	-327.56
	1088	544.5	1.30238E+000	1.28086E-001	0.00000E+000	1.30390E+000	-1.03855E-004	11	...........	-327.56
	1096	548.5	1.31041E+000	1.41575E-001	0.00000E+000	1.31190E+000	-1.07188E-004	11	...........	-327.56
	1104	552.5	1.31838E+000	1.55800E-001	0.00000E+000	1.31990E+000	-1.04555E-004	11	...........	-327.56
	1112	556.5	1.32633E+000	1.70432E-001	0.00000E+000	1.32790E+000	-1.04121E-004	11	...........	-327.56
	1120	560.5	1.33430E+000	1.85794E-001	0.00000E+000	1.33590E+000	-1.02755E-004	11	...........	-327.56
	1128	564.5	1.34227E+000	2.02249E-001	0.00000E+000	1.34390E+000	-9.99548E-005	11	...........	-327.56
	1136	568.5	1.35022E+000	2.19461E-001	0.00000E+000	1.35190E+000	-1.01588E-004	11	...........	-327.56
	1144	572.5	1.35818E+000	2.37110E-001	0.00000E+000	1.35990E+000	-1.01521E-004	11	...........	-327.56
	1152	576.5	1.36615E+000	2.55093E-001	0.00000E+000	1.36790E+000	-9.81548E-005	11	...........	-327.56
	1160	580.5	1.37435E+000	2.73004E-001	0.00000E+000	1.37590E+000	-1.09288E-004	12	...........	-327.56
	1168	584.5	1.38235E+000	2.89474E-001	0.00000E+000	1.38390E+000	-1.04121E-004	12	...........	-327.56
	1176	588.5	1.39037E+000	3.06252E-001	0.00000E+000	1.39190E+000	-1.06955E-004	12	...........	-327.56
	1184	592.5	1.39833E+000	3.21395E-001	0.00000E+000	1.39990E+000	-1.00855E-004	12	...........	-327.56
	1192	596.5	1.40633E+000	3.35600E-001	0.00000E+000	1.40790E+000	-1.07355E-004	12	...........	-327.56
	1200	600.5	1.41433E+000	3.49871E-001	0.00000E+000	1.41590E+000	-1.02021E-004	12	...........	-327.56
	1208	604.5	1.42229E+000	3.62995E-001	0.00000E+000	1.42390E+000	-1.05055E-004	12	...........	-327.56
	1216	608.5	1.43029E+000	3.77559E-001	0.00000E+000	1.43190E+000	-1.05588E-004	12	...........	-327.56
	1224	612.5	1.43829E+000	3.95074E-001	0.00000E+000	1.43990E+000	-1.07521E-004	12	...........	-327.56
	1232	616.5	1.44626E+000	4.12677E-001	0.00000E+000	1.44790E+000	-1.05655E-004	12	...........	-327.56
	1240	620.5	1.45423E+000	4.30886E-001	0.00000E+000	1.45590E+000	-1.10621E-004	12	...........	-327.56
	1248	624.5	1.46224E+000	4.47005E-001	0.00000E+000	1.46390E+000	-1.02921E-004	12	...........	-327.56
	1256	628.5	1.47021E+000	4.66174E-001	0.00000E+000	1.47190E+000	-1.05355E-004	12	...........	-327.56
	1264	632.5	1.47817E+000	4.87336E-001	0.00000E+000	1.47990E+000	-1.04421E-004	12	...........	-327.56
	1272	636.5	1.48615E+000	5.07762E-001	0.00000E+000	1.48790E+000	-1.04921E-004	12	...........	-327.56
	1280	640.5	1.49416E+000	5.29825E-001	0.00000E+000	1.49590E+000	-1.02921E-004	12	...........	-327.56
	1288	644.5	1.50204E+000	5.55941E-001	0.00000E+000	1.50390E+000	-1.01455E-004	12	...........	-327.56
	1296	648.5	1.51005E+000	5.73581E-001	0.00000E+000	1.51190E+000	-1.03221E-004	12	...........	-327.56
	1304	652.5	1.51809E+000	6.02118E-001	0.00000E+000	1.51990E+000	-1.04255E-004	12	...........	-327.56
	1312	656.5	1.52598E+000	6.26146E-001	0.00000E+000	1.52790E+000	-1.05021E-004	12	...........	-327.56
	1320	660.5	1.53398E+000	6.54090E-001	0.00000E+000	1.53590E+000	-1.06888E-004	12	...........	-327.56
	1328	664.5	1.54196E+000	6.76832E-001	0.00000E+000	1.54390E+000	-1.02055E-004	12	...........	-327.56
	1336	668.5	1.54986E+000	7.03228E-001	0.00000E+000	1.55190E+000	-1.06421E-004	12	...........	-327.56
	1344	672.5	1.55788E+000	7.30574E-001	0.00000E+000	1.55990E+000	-1.07688E-004	12	...........	-327.56
	1352	676.5	1.56589E+000	7.56518E-001	0.00000E+000	1.56790E+000	-1.07321E-004	12	...........	-327.56
	1360	680.5	1.57388E+000	7.82720E-001	0.00000E+000	1.57590E+000	-1.03621E-004	12	...........	-327.56
	1368	684.5	1.58183E+000	8.03366E-001	0.00000E+000	1.58390E+000	-1.07755E-004	12	...........	-327.56
	1376	688.5	1.58984E+000	8.22445E-001	0.00000E+000	1.59190E+000	-1.03621E-004	12	...........	-327.56
	1384	692.5	1.59781E+000	8.45867E-001	0.00000E+000	1.59990E+000	-1.04488E-004	12	...........	-327.56
	1392	696.5	1.60577E+000	8.78806E-001	0.00000E+000	1.60790E+000	-1.02755E-004	12	...........	-327.56
	1400	700.5	1.61376E+000	8.97131E-001	0.00000E+000	1.61590E+000	-9.93214E-005	12	...........	-327.56
	1408	704.5	1.62177E+000	9.17849E-001	0.00000E+000	1.62390E+000	-1.01988E-004	12	...........	-327.56
	1416	708.5	1.62966E+000	9.42116E-001	0.00000E+000	1.63190E+000	-1.06988E-004	12	...........	-327.56
	1424	712.5	1.63771E+000	9.60725E-001	0.00000E+000	1.63990E+000	-1.05588E-004	12	...........	-327.56
	1432	716.5	1.64568E+000	9.90169E-001	0.00000E+000	1.64790E+000	-1.06355E-004	12	...........	-327.56
	1440	720.5	1.65360E+000	1.00841E+000	0.00000E+000	1.65590E+000	-1.03321E-004	12	...........	-327.56
	1448	724.5	1.66162E+000	1.04440E+000	0.00000E+000	1.66390E+000	-1.01388E-004	12	...........	-327.56
	1456	728.5	1.66965E+000	1.04255E+000	0.00000E+000	1.67190E+000	-1.03455E-004	12	...........	-327.56
	1464	732.5	1.67755E+000	1.07772E+000	0.00000E+000	1.67990E+000	-1.04221E-004	12	...........	-327.56
	1472	736.5	1.68556E+000	1.08817E+000	0.00000E+000	1.68790E+000	-1.03721E-004	12	...........	-327.56
	1480	740.5	1.69359E+000	1.11444E+000	0.00000E+000	1.69590E+000	-1.00255E-004	12	...........	-327.56
	1488	744.5	1.69359E+000	1.11655E+000	0.00000E+000	1.69590E+000	-9.96214E-005	12	...........	-327.56
	1496	748.5	1.68556E+000	1.09754E+000	0.00000E+000	1.68790E+000	-1.00055E-004	12	...........	-327.56
	1504	752.5	1.67754E+000	1.08841E+000	0.00000E+000	1.67990E+000	-1.01355E-004	12	...........	-327.56
	1512	756.5	1.66963E+000	1.06868E+000	0.00000E+000	1.67190E+000	-1.04288E-004	12	...........	-327.56
	1520	760.5	1.66161E+000	1.05243E+000	0.00000E+000	1.66390E+000	-1.02521E-004	12	...........	-327.56
	1528	764.5	1.65359E+000	1.04096E+000	0.00000E+000	1.65590E+000	-1.03155E-004	12	...........	-327.56
	1536	768.5	1.64568E+000	1.02151E+000	0.00000E+000	1.64790E+000	-1.05621E-004	12	...........	-327.56
	1544	772.5	1.63767E+000	1.00622E+000	0.00000E+000	1.63990E+000	-1.03921E-004	12	...........	-327.56
	1552	776.5	1.62965E+000	9.91915E-001	0.00000E+000	1.63190E+000	-1.05521E-004	12	...........	-327.56
	1560	780.5	1.62174E+000	9.67014E-001	0.00000E+000	1.62390E+000	-1.05621E-004	12	...........	-327.56
	1568	784.5	1.61372E+000	9.50944E-001	0.00000E+000	1.61590E+000	-1.04355E-004	12	...........	-327.56
	1576	788.5	1.60572E+000	9.30382E-001	0.00000E+000	1.60790E+000	-1.02955E-004	12	...........	-327.56
	1584	792.5	1.59779E+000	9.07616E-001	0.00000E+000	1.59990E+000	-1.07921E-004	12	...........	-327.56
	1592	796.5	1.58982E+000	8.90960E-001	0.00000E+000	1.59190E+000	-1.04888E-004	12	...........	-327.56
	1600	800.5	1.58179E+000	8.69494E-001	0.00000E+000	1.58390E+000	-1.06355E-004	12	...........	-327.56
	1608	804.5	1.57384E+000	8.46249E-001	0.00000E+000	1.57590E+000	-1.06888E-004	12	...........	-327.56
	1616	808.5	1.56585E+000	8.33868E-001	0.00000E+000	1.56790E+000	-1.02055E-004	12	...........	-327.56
	1624	812.5	1.55783E+000	8.11956E-001	0.00000E+000	1.55990E+000	-1.05055E-004	12	...........	-327.56
	1632	816.5	1.54981E+000	7.98003E-001	0.00000E+000	1.55190E+000	-1.04521E-004	12	...........	-327.56
	1640	820.5	1.54189E+000	7.76600E-001	0.00000E+000	1.54390E+000	-1.03788E-004	12	...........	-327.56
	1648	824.5	1.53392E+000	7.53025E-001	0.00000E+000	1.53590E+000	-1.03921E-004	12	...........	-327.56
	1656	828.5	1.52593E+000	7.34071E-001	0.00000E+000	1.52790E+000	-1.04321E-004	12	...........	-327.56
	1664	832.5	1.51800E+000	7.14492E-001	0.00000E+000	1.51990E+000	-1.04455E-004	12	...........	-327.56
	1672	836.5	1.50997E+000	6.97878E-001	0.00000E+000	1.51190E+000	-1.06255E-004	12	...........	-327.56
	1680	840.5	1.50197E+000	6.81128E-001	0.00000E+000	1.50390E+000	-1.04655E-004	12	...........	-327.56
	1688	844.5	1.49405E+000	6.63223E-001	0.00000E+000	1.49590E+000	-1.00821E-004	12	...........	-327.56
	1696	848.5	1.48605E+000	6.43892E-001	0.00000E+000	1.48790E+000	-1.06888E-004	12	...........	-327.56
	1704	852.5	1.47804E+000	6.26640E-001	0.00000E+000	1.47990E+000	-1.00455E-004	12	...........	-327.56
	1712	856.5	1.47012E+000	6.07704E-001	0.00000E+000	1.47190E+000	-9.98881E-005	12	...........	-327.56
	1720	860.5	1.46212E+000	5.89523E-001	0.00000E+000	1.46390E+000	-1.02688E-004	12	...........	-327.56
	1728	864.5	1.45410E+000	5.69543E-001	0.00000E+000	1.45590E+000	-1.06788E-004	12	...........	-327.56
	1736	868.5	1.44614E+000	5.52156E-001	0.00000E+000	1.44790E+000	-9.93548E-005	12	...........	-327.56
	1744	872.5	1.43819E+000	5.35064E-001	0.00000E+000	1.43990E+000	-1.00688E-004	12	...........	-327.56
	1752	876.5	1.43021E+000	5.14981E-001	0.00000E+000	1.43190E+000	-1.02321E-004	12	...........	-327.56
	1760	880.5	1.42221E+000	4.97174E-001	0.00000E+000	1.42390E+000	-1.05555E-004	12	...........	-327.56
	1768	884.5	1.41427E+000	4.79554E-001	0.00000E+000	1.41590E+000	-1.02755E-004	12	...........	-327.56
	1776	888.5	1.40626E+000	4.60717E-001	0.00000E+000	1.40790E+000	-1.05421E-004	12	...........	-327.56
	1784	892.5	1.39829E+000	4.42693E-001	0.00000E+000	1.39990E+000	-1.05521E-004	12	...........	-327.56
	1792	896.5	1.39031E+000	4.25833E-001	0.00000E+000	1.39190E+000	-1.04555E-004	12	...........	-327.56
	1800	900.5	1.38232E+000	4.06639E-001	0.00000E+000	1.38390E+000	-1.05988E-004	12	...........	-327.56
	1808	904.5	1.37432E+000	3.90259E-001	0.00000E+000	1.37590E+000	-1.07288E-004	12	...........	-327.56
	1816	908.5	1.36634E+000	3.73429E-001	0.00000E+000	1.36790E+000	-9.99214E-005	12	...........	-327.56
	1824	912.5	1.35836E+000	3.56238E-001	0.00000E+000	1.35990E+000	-1.02721E-004	12	...........	-327.56
	1832	916.5	1.35034E+000	3.39681E-001	0.00000E+000	1.35190E+000	-1.09121E-004	12	...........	-327.56
	1840	920.5	1.34238E+000	3.25520E-001	0.00000E+000	1.34390E+000	-1.02455E-004	12	...........	-327.56
	1848	924.5	1.33438E+000	3.11970E-001	0.00000E+000	1.33590E+000	-1.04188E-004	12	...........	-327.56
	1856	928.5	1.32640E+000	2.97518E-001	0.00000E+000	1.32790E+000	-1.05221E-004	12	...........	-327.56
	1864	932.5	1.31843E+000	2.83596E-001	0.00000E+000	1.31990E+000	-9.91881E-005	12	...........	-327.56
	1872	936.5	1.31050E+000	2.68243E-001	0.00000E+000	1.31190E+000	-1.06188E-004	12	...........	-327.56
	1880	940.5	1.30247E+000	2.53030E-001	0.00000E+000	1.30390E+000	-1.06055E-004	12	...........	-327.56
	1888	944.5	1.29425E+000	2.38536E-001	0.00000E+000	1.29590E+000	-1.01888E-004	11	...........	-327.56
	1896	948.5	1.28630E+000	2.24812E-001	0.00000E+000	1.28790E+000	-9.71881E-005	11	...........	-327.56
	1904	952.5	1.27832E+000	2.12529E-001	0.00000E+000	1.27990E+000	-1.03355E-004	11	...........	-327.56
	1912	956.5	1.27033E+000	1.99363E-001	0.00000E+000	1.27190E+000	-9.83881E-005	11	...........	-327.56
	1920	960.5	1.26238E+000	1.85899E-001	0.00000E+000	1.26390E+000	-1.02988E-004	11	...........	-327.56
	1928	964.5	1.25437E+000	1.72503E-001	0.00000E+000	1.25590E+000	-1.04388E-004	11	...........	-327.56
	1936	968.5	1.24637E+000	1.59588E-001	0.00000E+000	1.24790E+000	-1.04321E-004	11	...........	-327.56
	1944	972.5	1.23847E+000	1.47036E-001	0.00000E+000	1.23990E+000	-1.01488E-004	11	...........	-327.56
	1952	976.5	1.23047E+000	1.32839E-001	0.00000E+000	1.23190E+000	-1.06121E-004	11	...........	-327.56
	1960	980.5	1.22243E+000	1.22938E-001	0.00000E+000	1.22390E+000	-1.02388E-004	11	...........	-327.56
	1968	984.5	1.21454E+000	1.12556E-001	0.00000E+000	1.21590E+000	-1.04055E-004	11	...........	-327.56
	1976	988.5	1.20655E+000	1.02746E-001	0.00000E+000	1.20790E+000	-1.02055E-004	11	...........	-327.56
	1984	992.5	1.19853E+000	9.12245E-002	0.00000E+000	1.19990E+000	-1.05021E-004	11	...........	-327.56
	1992	996.5	1.19054E+000	8.38601E-002	0.00000E+000	1.19190E+000	-1.01255E-004	11	...........	-327.56
	2000	1000.5	1.18262E+000	7.54739E-002	0.00000E+000	1.18390E+000	-1.00988E-004	11	...........	-327.56
	2008	1004.5	1.17459E+000	6.95702E-002	0.00000E+000	1.17590E+000	-1.03088E-004	11	...........	-327.56
	2016	1008.5	1.16656E+000	6.34335E-002	0.00000E+000	1.16790E+000	-1.04321E-004	11	...........	-327.56
	2024	1012.5	1.15866E+000	5.76592E-002	0.00000E+000	1.15990E+000	-1.03355E-004	11	...........	-327.56
	2032	1016.5	1.15062E+000	5.23377E-002	0.00000E+000	1.15190E+000	-1.08555E-004	11	...........	-327.56
	2040	1020.5	1.14261E+000	4.73789E-002	0.00000E+000	1.14390E+000	-1.01421E-004	11	...........	-327.56
	2048	1024.5	1.13469E+000	4.30102E-002	0.00000E+000	1.13590E+000	-1.04955E-004	11	...........	-327.56
	2056	1028.5	1.12667E+000	3.88234E-002	0.00000E+000	1.12790E+000	-1.01421E-004	11	...........	-327.56
	2064	1032.5	1.11871E+000	3.49779E-002	0.00000E+000	1.11990E+000	-1.03621E-004	11	...........	-327.56
	2072	1036.5	1.11077E+000	3.14605E-002	0.00000E+000	1.11190E+000	-1.02521E-004	11	...........	-327.56
	2080	1040.5	1.10276E+000	2.83682E-002	0.00000E+000	1.10390E+000	-1.04421E-004	11	...........	-327.56
	2088	1044.5	1.09474E+000	2.56249E-002	0.00000E+000	1.09590E+000	-1.00388E-004	11	...........	-327.56
	2096	1048.5	1.08654E+000	2.32231E-002	0.00000E+000	1.08790E+000	-1.02688E-004	10	...........	-327.56
	2104	1052.5	1.07857E+000	2.12621E-002	0.00000E+000	1.07990E+000	-1.00021E-004	10	...........	-327.56
	2112	1056.5	1.07055E+000	1.94471E-002	0.00000E+000	1.07190E+000	-1.01355E-004	10	...........	-327.56
	2120	1060.5	1.06255E+000	2.02386E-002	0.00000E+000	1.06390E+000	-1.00955E-004	10	...........	-327.56
	2128	1064.5	1.05463E+000	1.79724E-002	0.00000E+000	1.05590E+000	-1.02121E-004	10	...........	-327.56
	2136	1068.5	1.04661E+000	1.66119E-002	0.00000E+000	1.04790E+000	-1.02321E-004	10	...........	-327.56
	2144	1072.5	1.03858E+000	1.56394E-002	0.00000E+000	1.03990E+000	-1.06055E-004	10	...........	-327.56
	2152	1076.5	1.03068E+000	1.47063E-002	0.00000E+000	1.03190E+000	-1.02855E-004	10	...........	-327.56
	2160	1080.5	1.02267E+000	1.39344E-002	0.00000E+000	1.02390E+000	-1.02255E-004	10	...........	-327.56
	2168	1084.5	1.01465E+000	1.32221E-002	0.00000E+000	1.01590E+000	-1.03821E-004	10	...........	-327.56
	2176	1088.5	1.00674E+000	1.26271E-002	0.00000E+000	1.00790E+000	-1.02855E-004	10	...........	-327.56
	2184	1092.5	9.98721E-001	1.20804E-002	0.00000E+000	9.99900E-001	-1.00955E-004	10	...........	-327.56
	2192	1096.5	9.90696E-001	1.15928E-002	0.00000E+000	9.91900E-001	-1.01988E-004	10	...........	-327.56
	2200	1100.5	9.82763E-001	1.12129E-002	0.00000E+000	9.83900E-001	-9.96548E-005	10	...........	-327.56
	2208	1104.5	9.74760E-001	1.08443E-002	0.00000E+000	9.75900E-001	-1.02855E-004	10	...........	-327.56
	2216	1108.5	9.66739E-001	1.05335E-002	0.00000E+000	9.67900E-001	-1.02755E-004	10	...........	-327.56
	2224	1112.5	9.58796E-001	1.03480E-002	0.00000E+000	9.59900E-001	-1.00388E-004	10	...........	-327.56
	2232	1116.5	9.50802E-001	1.01422E-002	0.00000E+000	9.51900E-001	-9.99214E-005	10	...........	-327.56
	2240	1120.5	9.42764E-001	9.97545E-003	0.00000E+000	9.43900E-001	-1.04455E-004	10	...........	-327.56
	2248	1124.5	9.34734E-001	9.85632E-003	0.00000E+000	9.35900E-001	-1.05155E-004	10	...........	-327.56
	2256	1128.5	9.26818E-001	9.76788E-003	0.00000E+000	9.27900E-001	-1.05121E-004	10	...........	-327.56
	2264	1132.5	9.18815E-001	9.67246E-003	0.00000E+000	9.19900E-001	-1.01455E-004	10	...........	-327.56
	2272	1136.5	9.10789E-001	9.58372E-003	0.00000E+000	9.11900E-001	-1.04655E-004	10	...........	-327.56
	2280	1140.5	9.02895E-001	9.51230E-003	0.00000E+000	9.03900E-001	-9.96881E-005	10	...........	-327.56
	2288	1144.5	8.94835E-001	9.45547E-003	0.00000E+000	8.95900E-001	-1.04755E-004	10	...........	-327.56
	2296	1148.5	8.86806E-001	9.37429E-003	0.00000E+000	8.87900E-001	-1.01121E-004	10	...........	-327.56
	2304	1152.5	8.78917E-001	9.27719E-003	0.00000E+000	8.79900E-001	-1.03688E-004	10	...........	-327.56
	2312	1156.5	8.70885E-001	9.21206E-003	0.00000E+000	8.71900E-001	-1.03688E-004	10	...........	-327.56
	2320	1160.5	8.62852E-001	9.13389E-003	0.00000E+000	8.63900E-001	-1.04855E-004	10	...........	-327.56
	2328	1164.5	8.54935E-001	9.03194E-003	0.00000E+000	8.55900E-001	-1.00988E-004	10	...........	-327.56
	2336	1168.5	8.46928E-001	8.98356E-003	0.00000E+000	8.47900E-001	-1.04388E-004	10	...........	-327.56
	2344	1172.5	8.38865E-001	8.94723E-003	0.00000E+000	8.39900E-001	-1.00588E-004	10	...........	-327.56
	2352	1176.5	8.30943E-001	8.95894E-003	0.00000E+000	8.31900E-001	-1.02888E-004	10	...........	-327.56
	2360	1180.5	8.22941E-001	8.89954E-003	0.00000E+000	8.23900E-001	-9.82214E-005	10	...........	-327.56
	2368	1184.5	8.14952E-001	8.85845E-003	0.00000E+000	8.15900E-001	-1.07855E-004	10	...........	-327.56
	2376	1188.5	8.06907E-001	8.80779E-003	0.00000E+000	8.07900E-001	-1.01788E-004	10	...........	-327.56
	2384	1192.5	7.99015E-001	8.75670E-003	0.00000E+000	7.99900E-001	-1.01488E-004	10	...........	-327.56
	2392	1196.5	7.90974E-001	8.72364E-003	0.00000E+000	7.91900E-001	-1.01088E-004	10	...........	-327.56
	2400	1200.5	7.82946E-001	8.70725E-003	0.00000E+000	7.83900E-001	-1.03255E-004	10	...........	-327.56
	2408	1204.5	7.75027E-001	8.68384E-003	0.00000E+000	7.75900E-001	-1.00755E-004	10	...........	-327.56
	2416	1208.5	7.67005E-001	8.68603E-003	0.00000E+000	7.67900E-001	-1.04488E-004	10	...........	-327.56
	2424	1212.5	7.58976E-001	8.69098E-003	0.00000E+000	7.59900E-001	-9.97881E-005	10	...........	-327.56
	2432	1216.5	7.51050E-001	8.70681E-003	0.00000E+000	7.51900E-001	-1.00388E-004	10	...........	-327.56
	2440	1220.5	7.43013E-001	8.72105E-003	0.00000E+000	7.43900E-001	-1.02788E-004	10	...........	-327.56
	2448	1224.5	7.34979E-001	8.73282E-003	0.00000E+000	7.35900E-001	-1.01655E-004	10	...........	-327.56
	2456	1228.5	7.27050E-001	8.79474E-003	0.00000E+000	7.27900E-001	-9.80548E-005	10	...........	-327.56
	2464	1232.5	7.19046E-001	8.81748E-003	0.00000E+000	7.19900E-001	-1.02488E-004	10	...........	-327.56
	2472	1236.5	7.11046E-001	8.70031E-003	0.00000E+000	7.11900E-001	-9.91548E-005	10	...........	-327.56
	2480	1240.5	7.03094E-001	8.76953E-003	0.00000E+000	7.03900E-001	-1.03421E-004	10	...........	-327.56
	2488	1244.5	6.95102E-001	8.71261E-003	0.00000E+000	6.95900E-001	-9.92881E-005	10	...........	-327.56
	2496	1248.5	6.87065E-001	8.65058E-003	0.00000E+000	6.87900E-001	-1.03455E-004	10	...........	-327.56
	2504	1252.5	6.79035E-001	8.39311E-003	0.00000E+000	6.79900E-001	-9.76881E-005	10	...........	-327.56
	2512	1256.5	6.71130E-001	8.16579E-003	0.00000E+000	6.71900E-001	-9.95881E-005	10	...........	-327.56
	2520	1260.5	6.63091E-001	7.96801E-003	0.00000E+000	6.63900E-001	-1.04255E-004	10	...........	-327.56
	2528	1264.5	6.55084E-001	7.79979E-003	0.00000E+000	6.55900E-001	-1.03821E-004	10	...........	-327.56
	2536	1268.5	6.47156E-001	7.78479E-003	0.00000E+000	6.47900E-001	-1.00388E-004	10	...........	-327.56
	2544	1272.5	6.39104E-001	7.74020E-003	0.00000E+000	6.39900E-001	-1.02855E-004	10	...........	-327.56
	2552	1276.5	6.31090E-001	7.74095E-003	0.00000E+000	6.31900E-001	-1.00055E-004	10	...........	-327.56
	2560	1280.5	6.23162E-001	7.64350E-003	0.00000E+000	6.23900E-001	-1.01821E-004	10	...........	-327.56
	2568	1284.5	6.15150E-001	7.46535E-003	0.00000E+000	6.15900E-001	-9.99548E-005	10	...........	-327.56
	2576	1288.5	6.07147E-001	7.49256E-003	0.00000E+000	6.07900E-001	-1.00488E-004	10	...........	-327.56
	2584	1292.5	5.99211E-001	7.42711E-003	0.00000E+000	5.99900E-001	-1.03621E-004	10	...........	-327.56
	2592	1296.5	5.91188E-001	7.34597E-003	0.00000E+000	5.91900E-001	-1.01521E-004	10	...........	-327.56
	2600	1300.5	5.83158E-001	7.23788E-003	0.00000E+000	5.83900E-001	-1.03555E-004	10	...........	-327.56
	2608	1304.5	5.75206E-001	7.22618E-003	0.00000E+000	5.75900E-001	-1.04288E-004	10	...........	-327.56
	2616	1308.5	5.67214E-001	6.97461E-003	0.00000E+000	5.67900E-001	-1.00888E-004	10	...........	-327.56
	2624	1312.5	5.59181E-001	6.93265E-003	0.00000E+000	5.59900E-001	-1.04621E-004	10	...........	-327.56
	2632	1316.5	5.51147E-001	6.86985E-003	0.00000E+000	5.51900E-001	-1.03521E-004	10	...........	-327.56
	2640	1320.5	5.43249E-001	6.72701E-003	0.00000E+000	5.43900E-001	-1.02521E-004	10	...........	-327.56
	2648	1324.5	5.35205E-001	6.53354E-003	0.00000E+000	5.35900E-001	-1.01621E-004	10	...........	-327.56
	2656	1328.5	5.27184E-001	6.15364E-003	0.00000E+000	5.27900E-001	-1.01788E-004	10	...........	-327.56
	2664	1332.5	5.19261E-001	6.23616E-003	0.00000E+000	5.19900E-001	-1.04555E-004	10	...........	-327.56
	2672	1336.5	5.11274E-001	5.84420E-003	0.00000E+000	5.11900E-001	-1.05388E-004	10	...........	-327.56
	2680	1340.5	5.03257E-001	5.71847E-003	0.00000E+000	5.03900E-001	-1.03255E-004	10	...........	-327.56
	2688	1344.5	4.95354E-001	5.39958E-003	0.00000E+000	4.95900E-001	-1.06255E-004	10	...........	-327.56
	2696	1348.5	4.87333E-001	5.27025E-003	0.00000E+000	4.87900E-001	-1.00688E-004	10	...........	-327.56
	2704	1352.5	4.79293E-001	5.02042E-003	0.00000E+000	4.79900E-001	-1.05488E-004	10	...........	-327.56
	2712	1356.5	4.71353E-001	4.82182E-003	0.00000E+000	4.71900E-001	-1.03555E-004	10	...........	-327.56
	2720	1360.5	4.63374E-001	4.79704E-003	0.00000E+000	4.63900E-001	-1.05721E-004	10	...........	-327.56
	2728	1364.5	4.55341E-001	4.45878E-003	0.00000E+000	4.55900E-001	-1.08055E-004	10	...........	-327.56
	2736	1368.5	4.47384E-001	4.18531E-003	0.00000E+000	4.47900E-001	-1.07321E-004	10	...........	-327.56
	2744	1372.5	4.39396E-001	4.04226E-003	0.00000E+000	4.39900E-001	-1.04055E-004	10	...........	-327.56
	2752	1376.5	4.31359E-001	3.77588E-003	0.00000E+000	4.31900E-001	-1.04721E-004	10	...........	-327.56
	2760	1380.5	4.23318E-001	3.59726E-003	0.00000E+000	4.23900E-001	-1.05155E-004	10	...........	-327.56
	2768	1384.5	4.15423E-001	3.55301E-003	0.00000E+000	4.15900E-001	-1.02621E-004	10	...........	-327.56
	2776	1388.5	4.07389E-001	3.01295E-003	0.00000E+000	4.07900E-001	-1.05488E-004	10	...........	-327.56
	2784	1392.5	3.99364E-001	2.69994E-003	0.00000E+000	3.99900E-001	-1.06088E-004	10	...........	-327.56
	2792	1396.5	3.91433E-001	2.50518E-003	0.00000E+000	3.91900E-001	-1.02921E-004	10	...........	-327.56
	2800	1400.5	3.83404E-001	2.59316E-003	0.00000E+000	3.83900E-001	-1.03655E-004	10	...........	-327.56
	2808	1404.5	3.75126E-001	2.30176E-003	0.00000E+000	3.75900E-001	-1.00621E-004	9	...........	-327.56
	2816	1408.5	3.67215E-001	2.09667E-003	0.00000E+000	3.67900E-001	-1.00388E-004	9	...........	-327.56
	2824	1412.5	3.59227E-001	1.78446E-003	0.00000E+000	3.59900E-001	-9.94881E-005	9	...........	-327.56
	2832	1416.5	3.51253E-001	1.41592E-003	0.00000E+000	3.51900E-001	-1.01655E-004	9	...........	-327.56
	2840	1420.5	3.43363E-001	1.07659E-003	0.00000E+000	3.43900E-001	-1.04721E-004	9	...........	-327.56
	2848	1424.5	3.35386E-001	9.15352E-004	0.00000E+000	3.35900E-001	-1.06855E-004	9	...........	-327.56
	2856	1428.5	3.27430E-001	2.18291E-004	0.00000E+000	3.27900E-001	-1.04788E-004	9	...........	-327.56
	2864	1432.5	3.19348E-001	1.21449E-004	0.00000E+000	3.19900E-001	-1.03221E-004	8	...........	-327.56
	2872	1436.5	3.11482E-001	1.79904E-005	0.00000E+000	3.11900E-001	-1.03855E-004	8	...........	-327.56
	2880	1440.5	3.03569E-001	-4.23434E-004	0.00000E+000	3.03900E-001	-1.08555E-004	9	...........	-327.56
	2888	1444.5	2.95585E-001	-7.72270E-004	0.00000E+000	2.95900E-001	-1.04621E-004	9	...........	-327.56
	2896	1448.5	2.87772E-001	-1.48348E-003	0.00000E+000	2.87900E-001	-1.03755E-004	9	...........	-327.56
	2904	1452.5	2.79811E-001	-2.02020E-003	0.00000E+000	2.79900E-001	-1.01788E-004	9	...........	-327.56
	2912	1456.5	2.71856E-001	-2.23776E-003	0.00000E+000	2.71900E-001	-9.75881E-005	9	...........	-327.56
	2920	1460.5	2.63885E-001	-2.34046E-003	0.00000E+000	2.63900E-001	-9.90881E-005	9	...........	-327.56
	2928	1464.5	2.55914E-001	-2.63590E-003	0.00000E+000	2.55900E-001	-9.31881E-005	9	...........	-327.56
	2936	1468.5	2.47569E-001	-2.66016E-003	0.00000E+000	2.47900E-001	-1.00521E-004	10	...........	-327.56
	2944	1472.5	2.39659E-001	-2.79198E-003	0.00000E+000	2.39900E-001	-1.03288E-004	10	...........	-327.56
	2952	1476.5	2.31625E-001	-3.18154E-003	0.00000E+000	2.31900E-001	-1.03455E-004	10	...........	-327.56
[...]
	10110	5055.5	7.25199E-001	3.90950E-002	0.00000E+000	7.26000E-001	-1.06288E-004	11	...........	-327.56
	10115	5058	7.30106E-001	3.87022E-002	0.00000E+000	7.31000E-001	-1.06988E-004	11	...........	-327.56
	10120	5060.5	7.35126E-001	3.83510E-002	0.00000E+000	7.36000E-001	-1.06788E-004	11	...........	-327.56
	10125	5063	7.40152E-001	3.81006E-002	0.00000E+000	7.41000E-001	-1.11821E-004	11	...........	-327.56
	10130	5065.5	7.45174E-001	3.78914E-002	0.00000E+000	7.46000E-001	-1.06421E-004	11	...........	-327.56
	10135	5068	7.50200E-001	3.76528E-002	0.00000E+000	7.51000E-001	-1.07355E-004	11	...........	-327.56
	10140	5070.5	7.55180E-001	3.73857E-002	0.00000E+000	7.56000E-001	-1.08788E-004	11	...........	-327.56
	10145	5073	7.60138E-001	3.71928E-002	0.00000E+000	7.61000E-001	-1.09688E-004	11	...........	-327.56
	10150	5075.5	7.65136E-001	3.68766E-002	0.00000E+000	7.66000E-001	-1.06421E-004	11	...........	-327.56
	10155	5078	7.70157E-001	3.65725E-002	0.00000E+000	7.71000E-001	-1.06755E-004	11	...........	-327.56
	10160	5080.5	7.75166E-001	3.62537E-002	0.00000E+000	7.76000E-001	-1.08055E-004	11	...........	-327.56
	10165	5083	7.80156E-001	3.60345E-002	0.00000E+000	7.81000E-001	-1.08021E-004	11	...........	-327.56
	10170	5085.5	7.85085E-001	3.57612E-002	0.00000E+000	7.86000E-001	-1.09055E-004	11	...........	-327.56
	10175	5088	7.90128E-001	3.55599E-002	0.00000E+000	7.91000E-001	-1.09255E-004	11	...........	-327.56
	10180	5090.5	7.95150E-001	3.52920E-002	0.00000E+000	7.96000E-001	-1.10355E-004	11	...........	-327.56
	10185	5093	8.00165E-001	3.49213E-002	0.00000E+000	8.01000E-001	-1.06755E-004	11	...........	-327.56
	10190	5095.5	8.05160E-001	3.48208E-002	0.00000E+000	8.06000E-001	-1.05255E-004	11	...........	-327.56
	10195	5098	8.10098E-001	3.45477E-002	0.00000E+000	8.11000E-001	-1.06788E-004	11	...........	-327.56
	10200	5100.5	8.15101E-001	3.43614E-002	0.00000E+000	8.16000E-001	-1.07588E-004	11	...........	-327.56
	10205	5103	8.20064E-001	3.39970E-002	0.00000E+000	8.21000E-001	-1.11488E-004	11	...........	-327.56
	10210	5105.5	8.25077E-001	3.38437E-002	0.00000E+000	8.26000E-001	-1.05521E-004	11	...........	-327.56
	10215	5108	8.30101E-001	3.36105E-002	0.00000E+000	8.31000E-001	-1.07921E-004	11	...........	-327.56
	10220	5110.5	8.35097E-001	3.33773E-002	0.00000E+000	8.36000E-001	-1.09088E-004	11	...........	-327.56
	10225	5113	8.40084E-001	3.31289E-002	0.00000E+000	8.41000E-001	-1.09655E-004	11	...........	-327.56
	10230	5115.5	8.45040E-001	3.28910E-002	0.00000E+000	8.46000E-001	-1.03621E-004	11	...........	-327.56
	10235	5118	8.50083E-001	3.25863E-002	0.00000E+000	8.51000E-001	-1.06555E-004	11	...........	-327.56
	10240	5120.5	8.55090E-001	3.23970E-002	0.00000E+000	8.56000E-001	-9.94214E-005	11	...........	-327.56
	10245	5123	8.60003E-001	3.20793E-002	0.00000E+000	8.61000E-001	-1.09655E-004	11	...........	-327.56
	10250	5125.5	8.65036E-001	3.17919E-002	0.00000E+000	8.66000E-001	-1.06755E-004	11	...........	-327.56
	10255	5128	8.70020E-001	3.15753E-002	0.00000E+000	8.71000E-001	-1.02521E-004	11	...........	-327.56
	10260	5130.5	8.75100E-001	3.13468E-002	0.00000E+000	8.76000E-001	-1.10721E-004	11	...........	-327.56
	10265	5133	8.80071E-001	3.10375E-002	0.00000E+000	8.81000E-001	-1.09655E-004	11	...........	-327.56
	10270	5135.5	8.84986E-001	3.08758E-002	0.00000E+000	8.86000E-001	-1.11188E-004	11	...........	-327.56
	10275	5138	8.90001E-001	3.06037E-002	0.00000E+000	8.91000E-001	-1.05255E-004	11	...........	-327.56
	10280	5140.5	8.95017E-001	3.03498E-002	0.00000E+000	8.96000E-001	-1.01588E-004	11	...........	-327.56
	10285	5143	9.00047E-001	3.01055E-002	0.00000E+000	9.01000E-001	-1.06588E-004	11	...........	-327.56
	10290	5145.5	9.05048E-001	2.97564E-002	0.00000E+000	9.06000E-001	-1.08321E-004	11	...........	-327.56
	10295	5148	9.09979E-001	2.95553E-002	0.00000E+000	9.11000E-001	-1.08321E-004	11	...........	-327.56
	10300	5150.5	9.15051E-001	2.93476E-002	0.00000E+000	9.16000E-001	-1.07721E-004	11	...........	-327.56
	10305	5153	9.20000E-001	2.91424E-002	0.00000E+000	9.21000E-001	-1.06121E-004	11	...........	-327.56
	10310	5155.5	9.24999E-001	2.88568E-002	0.00000E+000	9.26000E-001	-1.09655E-004	11	...........	-327.56
	10315	5158	9.30005E-001	2.86219E-002	0.00000E+000	9.31000E-001	-1.08055E-004	11	...........	-327.56
	10320	5160.5	9.34900E-001	2.83238E-002	0.00000E+000	9.36000E-001	-1.07455E-004	11	...........	-327.56
	10325	5163	9.39925E-001	2.81140E-002	0.00000E+000	9.41000E-001	-1.05721E-004	11	...........	-327.56
	10330	5165.5	9.44957E-001	2.78484E-002	0.00000E+000	9.46000E-001	-1.08621E-004	11	...........	-327.56
	10335	5168	9.49963E-001	2.76728E-002	0.00000E+000	9.51000E-001	-1.08955E-004	11	...........	-327.56
	10340	5170.5	9.54995E-001	2.75373E-002	0.00000E+000	9.56000E-001	-1.04721E-004	11	...........	-327.56
	10345	5173	9.59974E-001	2.72337E-002	0.00000E+000	9.61000E-001	-1.05588E-004	11	...........	-327.56
	10350	5175.5	9.64935E-001	2.70302E-002	0.00000E+000	9.66000E-001	-1.08321E-004	11	...........	-327.56
	10355	5178	9.69930E-001	2.68539E-002	0.00000E+000	9.71000E-001	-1.06321E-004	11	...........	-327.56
	10360	5180.5	9.74977E-001	2.66102E-002	0.00000E+000	9.76000E-001	-1.08688E-004	11	...........	-327.56
	10365	5183	9.79977E-001	2.63801E-002	0.00000E+000	9.81000E-001	-1.06121E-004	11	...........	-327.56
	10370	5185.5	9.84969E-001	2.62592E-002	0.00000E+000	9.86000E-001	-1.06688E-004	11	...........	-327.56
	10375	5188	9.89897E-001	2.61848E-002	0.00000E+000	9.91000E-001	-1.11721E-004	11	...........	-327.56
	10380	5190.5	9.94915E-001	2.61609E-002	0.00000E+000	9.96000E-001	-1.05588E-004	11	...........	-327.56
	10385	5193	9.99956E-001	2.62401E-002	0.00000E+000	1.00100E+000	-1.06755E-004	11	...........	-327.56
	10390	5195.5	1.00497E+000	2.63614E-002	0.00000E+000	1.00600E+000	-1.08088E-004	11	...........	-327.56
	10395	5198	1.00997E+000	2.66615E-002	0.00000E+000	1.01100E+000	-1.10521E-004	11	...........	-327.56
	10400	5200.5	1.01488E+000	2.68747E-002	0.00000E+000	1.01600E+000	-1.06721E-004	11	...........	-327.56
	10405	5203	1.01990E+000	2.72463E-002	0.00000E+000	1.02100E+000	-1.04255E-004	11	...........	-327.56
	10410	5205.5	1.02490E+000	2.77265E-002	0.00000E+000	1.02600E+000	-1.07288E-004	11	...........	-327.56
	10415	5208	1.02990E+000	2.82371E-002	0.00000E+000	1.03100E+000	-1.06988E-004	11	...........	-327.56
	10420	5210.5	1.03492E+000	2.88402E-002	0.00000E+000	1.03600E+000	-1.04988E-004	11	...........	-327.56
	10425	5213	1.03992E+000	2.95417E-002	0.00000E+000	1.04100E+000	-1.03521E-004	11	...........	-327.56
	10430	5215.5	1.04488E+000	3.02252E-002	0.00000E+000	1.04600E+000	-1.12255E-004	11	...........	-327.56
	10435	5218	1.04988E+000	3.10326E-002	0.00000E+000	1.05100E+000	-1.06888E-004	11	...........	-327.56
	10440	5220.5	1.05491E+000	3.18173E-002	0.00000E+000	1.05600E+000	-1.05821E-004	11	...........	-327.56
	10445	5223	1.05991E+000	3.27065E-002	0.00000E+000	1.06100E+000	-1.04221E-004	11	...........	-327.56
	10450	5225.5	1.06482E+000	3.36821E-002	0.00000E+000	1.06600E+000	-1.07655E-004	11	...........	-327.56
	10455	5228	1.06984E+000	3.46185E-002	0.00000E+000	1.07100E+000	-1.07321E-004	11	...........	-327.56
	10460	5230.5	1.07485E+000	3.55043E-002	0.00000E+000	1.07600E+000	-1.06321E-004	11	...........	-327.56
	10465	5233	1.07990E+000	3.64816E-002	0.00000E+000	1.08100E+000	-1.05488E-004	11	...........	-327.56
	10470	5235.5	1.08487E+000	3.74121E-002	0.00000E+000	1.08600E+000	-1.04121E-004	11	...........	-327.56
	10475	5238	1.08980E+000	3.85581E-002	0.00000E+000	1.09100E+000	-1.12588E-004	11	...........	-327.56
	10480	5240.5	1.09480E+000	3.96690E-002	0.00000E+000	1.09600E+000	-1.06521E-004	11	...........	-327.56
	10485	5243	1.09983E+000	4.09446E-002	0.00000E+000	1.10100E+000	-1.06221E-004	11	...........	-327.56
	10490	5245.5	1.10485E+000	4.21937E-002	0.00000E+000	1.10600E+000	-1.11755E-004	11	...........	-327.56
	10495	5248	1.10985E+000	4.34694E-002	0.00000E+000	1.11100E+000	-1.04721E-004	11	...........	-327.56
	10500	5250.5	1.11475E+000	4.50636E-002	0.00000E+000	1.11600E+000	-1.06155E-004	11	...........	-327.56
	10505	5253	1.11984E+000	4.65316E-002	0.00000E+000	1.12100E+000	-1.05055E-004	11	...........	-327.56
	10510	5255.5	1.12477E+000	4.80567E-002	0.00000E+000	1.12600E+000	-1.09021E-004	11	...........	-327.56
	10515	5258	1.12978E+000	4.94586E-002	0.00000E+000	1.13100E+000	-1.05855E-004	11	...........	-327.56
	10520	5260.5	1.13477E+000	5.08456E-002	0.00000E+000	1.13600E+000	-1.07988E-004	11	...........	-327.56
	10525	5263	1.13968E+000	5.22044E-002	0.00000E+000	1.14100E+000	-1.06155E-004	11	...........	-327.56
	10530	5265.5	1.14469E+000	5.30757E-002	0.00000E+000	1.14600E+000	-1.07021E-004	11	...........	-327.56
	10535	5268	1.14973E+000	5.43818E-002	0.00000E+000	1.15100E+000	-1.09888E-004	11	...........	-327.56
	10540	5270.5	1.15475E+000	5.58678E-002	0.00000E+000	1.15600E+000	-1.05988E-004	11	...........	-327.56
	10545	5273	1.15977E+000	5.73295E-002	0.00000E+000	1.16100E+000	-1.05421E-004	11	...........	-327.56
	10550	5275.5	1.16474E+000	5.86142E-002	0.00000E+000	1.16600E+000	-1.03521E-004	11	...........	-327.56
	10555	5278	1.16969E+000	6.02673E-002	0.00000E+000	1.17100E+000	-1.07421E-004	11	...........	-327.56
	10560	5280.5	1.17470E+000	6.18173E-002	0.00000E+000	1.17600E+000	-1.04321E-004	11	...........	-327.56
	10565	5283	1.17973E+000	6.34188E-002	0.00000E+000	1.18100E+000	-1.03588E-004	11	...........	-327.56
	10570	5285.5	1.18472E+000	6.53242E-002	0.00000E+000	1.18600E+000	-1.04288E-004	11	...........	-327.56
	10575	5288	1.18971E+000	6.72519E-002	0.00000E+000	1.19100E+000	-1.07721E-004	11	...........	-327.56
	10580	5290.5	1.19464E+000	6.93716E-002	0.00000E+000	1.19600E+000	-1.07088E-004	11	...........	-327.56
	10585	5293	1.19966E+000	7.16221E-002	0.00000E+000	1.20100E+000	-1.08055E-004	11	...........	-327.56
	10590	5295.5	1.20471E+000	7.37770E-002	0.00000E+000	1.20600E+000	-1.09221E-004	11	...........	-327.56
	10595	5298	1.20969E+000	7.64849E-002	0.00000E+000	1.21100E+000	-1.06721E-004	11	...........	-327.56
	10600	5300.5	1.21469E+000	7.92874E-002	0.00000E+000	1.21600E+000	-1.08921E-004	11	...........	-327.56
	10605	5303	1.21961E+000	8.23263E-002	0.00000E+000	1.22100E+000	-1.05321E-004	11	...........	-327.56
	10610	5305.5	1.22462E+000	8.54668E-002	0.00000E+000	1.22600E+000	-1.04988E-004	11	...........	-327.56
	10615	5308	1.22964E+000	8.83226E-002	0.00000E+000	1.23100E+000	-1.06455E-004	11	...........	-327.56
	10620	5310.5	1.23465E+000	9.16870E-002	0.00000E+000	1.23600E+000	-1.07521E-004	11	...........	-327.56
	10625	5313	1.23965E+000	9.49167E-002	0.00000E+000	1.24100E+000	-1.05688E-004	11	...........	-327.56
	10630	5315.5	1.24464E+000	9.87307E-002	0.00000E+000	1.24600E+000	-1.06288E-004	11	...........	-327.56
	10635	5318	1.24958E+000	1.02541E-001	0.00000E+000	1.25100E+000	-1.05021E-004	11	...........	-327.56
	10640	5320.5	1.25460E+000	1.06738E-001	0.00000E+000	1.25600E+000	-1.08288E-004	11	...........	-327.56
	10645	5323	1.25962E+000	1.11509E-001	0.00000E+000	1.26100E+000	-1.09155E-004	11	...........	-327.56
	10650	5325.5	1.26461E+000	1.16958E-001	0.00000E+000	1.26600E+000	-1.03055E-004	11	...........	-327.56
	10655	5328	1.26951E+000	1.22371E-001	0.00000E+000	1.27100E+000	-1.05421E-004	11	...........	-327.56
	10660	5330.5	1.27453E+000	1.28165E-001	0.00000E+000	1.27600E+000	-1.06488E-004	11	...........	-327.56
	10665	5333	1.27951E+000	1.34147E-001	0.00000E+000	1.28100E+000	-1.04721E-004	11	...........	-327.56
	10670	5335.5	1.28455E+000	1.40432E-001	0.00000E+000	1.28600E+000	-1.01755E-004	11	...........	-327.56
	10675	5338	1.28953E+000	1.46399E-001	0.00000E+000	1.29100E+000	-1.05055E-004	11	...........	-327.56
	10680	5340.5	1.29441E+000	1.52885E-001	0.00000E+000	1.29600E+000	-1.05788E-004	11	...........	-327.56
	10685	5343	1.29945E+000	1.58860E-001	0.00000E+000	1.30100E+000	-1.03388E-004	11	...........	-327.56
	10690	5345.5	1.30445E+000	1.67308E-001	0.00000E+000	1.30600E+000	-1.05155E-004	11	...........	-327.56
	10695	5348	1.30948E+000	1.73999E-001	0.00000E+000	1.31100E+000	-9.95214E-005	11	...........	-327.56
	10700	5350.5	1.31446E+000	1.81591E-001	0.00000E+000	1.31600E+000	-1.08388E-004	11	...........	-327.56
	10705	5353	1.31934E+000	1.89200E-001	0.00000E+000	1.32100E+000	-1.03455E-004	11	...........	-327.56
	10710	5355.5	1.32436E+000	1.96771E-001	0.00000E+000	1.32600E+000	-1.05388E-004	11	...........	-327.56
	10715	5358	1.32939E+000	2.05085E-001	0.00000E+000	1.33100E+000	-1.03955E-004	11	...........	-327.56
	10720	5360.5	1.33434E+000	2.12844E-001	0.00000E+000	1.33600E+000	-1.05321E-004	11	...........	-327.56
	10725	5363	1.33934E+000	2.21882E-001	0.00000E+000	1.34100E+000	-1.06255E-004	11	...........	-327.56
	10730	5365.5	1.34422E+000	2.29402E-001	0.00000E+000	1.34600E+000	-1.03021E-004	11	...........	-327.56
	10735	5368	1.34922E+000	2.38834E-001	0.00000E+000	1.35100E+000	-1.02421E-004	11	...........	-327.56
	10740	5370.5	1.35422E+000	2.48789E-001	0.00000E+000	1.35600E+000	-1.04221E-004	11	...........	-327.56
	10745	5373	1.35923E+000	2.58125E-001	0.00000E+000	1.36100E+000	-1.05955E-004	11	...........	-327.56
	10750	5375.5	1.36422E+000	2.66948E-001	0.00000E+000	1.36600E+000	-1.03855E-004	11	...........	-327.56
	10755	5378	1.36951E+000	2.77392E-001	0.00000E+000	1.37100E+000	-1.04588E-004	12	...........	-327.56
	10760	5380.5	1.37442E+000	2.87720E-001	0.00000E+000	1.37600E+000	-1.05855E-004	12	...........	-327.56
	10765	5383	1.37945E+000	2.97005E-001	0.00000E+000	1.38100E+000	-1.05288E-004	12	...........	-327.56
	10770	5385.5	1.38445E+000	3.07091E-001	0.00000E+000	1.38600E+000	-1.06921E-004	12	...........	-327.56
	10775	5388	1.38948E+000	3.17349E-001	0.00000E+000	1.39100E+000	-1.03455E-004	12	...........	-327.56
	10780	5390.5	1.39445E+000	3.27457E-001	0.00000E+000	1.39600E+000	-1.09621E-004	12	...........	-327.56
	10785	5393	1.39939E+000	3.37188E-001	0.00000E+000	1.40100E+000	-1.08555E-004	12	...........	-327.56
	10790	5395.5	1.40437E+000	3.46855E-001	0.00000E+000	1.40600E+000	-1.01788E-004	12	...........	-327.56
	10795	5398	1.40946E+000	3.56701E-001	0.00000E+000	1.41100E+000	-1.07688E-004	12	...........	-327.56
	10800	5400.5	1.41442E+000	3.67084E-001	0.00000E+000	1.41600E+000	-1.03488E-004	12	...........	-327.56
	10805	5403	1.41941E+000	3.77733E-001	0.00000E+000	1.42100E+000	-1.09455E-004	12	...........	-327.56
	10810	5405.5	1.42433E+000	3.96048E-001	0.00000E+000	1.42600E+000	-1.08355E-004	12	...........	-327.56
	10815	5408	1.42936E+000	3.97715E-001	0.00000E+000	1.43100E+000	-1.08188E-004	12	...........	-327.56
	10820	5410.5	1.43434E+000	4.10005E-001	0.00000E+000	1.43600E+000	-1.03488E-004	12	...........	-327.56
	10825	5413	1.43937E+000	4.20146E-001	0.00000E+000	1.44100E+000	-1.08688E-004	12	...........	-327.56
	10830	5415.5	1.44432E+000	4.31867E-001	0.00000E+000	1.44600E+000	-1.07655E-004	12	...........	-327.56
	10835	5418	1.44926E+000	4.41161E-001	0.00000E+000	1.45100E+000	-1.09521E-004	12	...........	-327.56
	10840	5420.5	1.45432E+000	4.51367E-001	0.00000E+000	1.45600E+000	-1.05521E-004	12	...........	-327.56
	10845	5423	1.45929E+000	4.62565E-001	0.00000E+000	1.46100E+000	-1.10388E-004	12	...........	-327.56
	10850	5425.5	1.46430E+000	4.74683E-001	0.00000E+000	1.46600E+000	-1.05255E-004	12	...........	-327.56
	10855	5428	1.46931E+000	4.85673E-001	0.00000E+000	1.47100E+000	-1.05221E-004	12	...........	-327.56
	10860	5430.5	1.47421E+000	4.98019E-001	0.00000E+000	1.47600E+000	-1.11621E-004	12	...........	-327.56
	10865	5433	1.47921E+000	5.09899E-001	0.00000E+000	1.48100E+000	-1.07255E-004	12	...........	-327.56
	10870	5435.5	1.48423E+000	5.23403E-001	0.00000E+000	1.48600E+000	-1.06955E-004	12	...........	-327.56
	10875	5438	1.48924E+000	5.36109E-001	0.00000E+000	1.49100E+000	-1.06421E-004	12	...........	-327.56
	10880	5440.5	1.49425E+000	5.48439E-001	0.00000E+000	1.49600E+000	-1.05621E-004	12	...........	-327.56
	10885	5443	1.49914E+000	5.61023E-001	0.00000E+000	1.50100E+000	-1.13955E-004	12	...........	-327.56
	10890	5445.5	1.50416E+000	5.70295E-001	0.00000E+000	1.50600E+000	-1.04721E-004	12	...........	-327.56
	10895	5448	1.50916E+000	5.84114E-001	0.00000E+000	1.51100E+000	-1.07321E-004	12	...........	-327.56
	10900	5450.5	1.51419E+000	5.98989E-001	0.00000E+000	1.51600E+000	-1.05055E-004	12	...........	-327.56
	10905	5453	1.51918E+000	6.09468E-001	0.00000E+000	1.52100E+000	-1.06821E-004	12	...........	-327.56
	10910	5455.5	1.52409E+000	6.20703E-001	0.00000E+000	1.52600E+000	-1.09721E-004	12	...........	-327.56
	10915	5458	1.52911E+000	6.36470E-001	0.00000E+000	1.53100E+000	-1.07755E-004	12	...........	-327.56
	10920	5460.5	1.53412E+000	6.46303E-001	0.00000E+000	1.53600E+000	-1.03788E-004	12	...........	-327.56
	10925	5463	1.53911E+000	6.59055E-001	0.00000E+000	1.54100E+000	-1.06521E-004	12	...........	-327.56
	10930	5465.5	1.54409E+000	6.72946E-001	0.00000E+000	1.54600E+000	-1.09155E-004	12	...........	-327.56
	10935	5468	1.54900E+000	6.90713E-001	0.00000E+000	1.55100E+000	-1.04688E-004	12	...........	-327.56
	10940	5470.5	1.55400E+000	7.01046E-001	0.00000E+000	1.55600E+000	-1.07755E-004	12	...........	-327.56
	10945	5473	1.55901E+000	7.08879E-001	0.00000E+000	1.56100E+000	-1.02055E-004	12	...........	-327.56
	10950	5475.5	1.56402E+000	7.20275E-001	0.00000E+000	1.56600E+000	-1.06321E-004	12	...........	-327.56
	10955	5478	1.56903E+000	7.34233E-001	0.00000E+000	1.57100E+000	-1.05455E-004	12	...........	-327.56
	10960	5480.5	1.57401E+000	7.44299E-001	0.00000E+000	1.57600E+000	-1.03688E-004	12	...........	-327.56
	10965	5483	1.57900E+000	7.52430E-001	0.00000E+000	1.58100E+000	-1.05188E-004	12	...........	-327.56
	10970	5485.5	1.58394E+000	7.70172E-001	0.00000E+000	1.58600E+000	-1.08055E-004	12	...........	-327.56
	10975	5488	1.58898E+000	7.80800E-001	0.00000E+000	1.59100E+000	-1.07421E-004	12	...........	-327.56
	10980	5490.5	1.59399E+000	7.90441E-001	0.00000E+000	1.59600E+000	-1.06355E-004	12	...........	-327.56
	10985	5493	1.59898E+000	8.00631E-001	0.00000E+000	1.60100E+000	-1.02755E-004	12	...........	-327.56
	10990	5495.5	1.60388E+000	8.24459E-001	0.00000E+000	1.60600E+000	-1.05421E-004	12	...........	-327.56
	10995	5498	1.60889E+000	8.30665E-001	0.00000E+000	1.61100E+000	-1.07388E-004	12	...........	-327.56
	11000	5500.5	1.61392E+000	8.45588E-001	0.00000E+000	1.61600E+000	-1.07788E-004	12	...........	-327.56
	11005	5503	1.61892E+000	8.58637E-001	0.00000E+000	1.62100E+000	-1.03621E-004	12	...........	-327.56
	11010	5505.5	1.62392E+000	8.59945E-001	0.00000E+000	1.62600E+000	-1.04688E-004	12	...........	-327.56
	11015	5508	1.62881E+000	8.72627E-001	0.00000E+000	1.63100E+000	-1.06055E-004	12	...........	-327.56
	11020	5510.5	1.63386E+000	8.78929E-001	0.00000E+000	1.63600E+000	-1.05421E-004	12	...........	-327.56
	11025	5513	1.63884E+000	8.98030E-001	0.00000E+000	1.64100E+000	-1.02955E-004	12	...........	-327.56
	11030	5515.5	1.64385E+000	9.07004E-001	0.00000E+000	1.64600E+000	-1.05255E-004	12	...........	-327.56
	11035	5518	1.64883E+000	9.16191E-001	0.00000E+000	1.65100E+000	-1.11288E-004	12	...........	-327.56
	11040	5520.5	1.65378E+000	9.20693E-001	0.00000E+000	1.65600E+000	-1.08021E-004	12	...........	-327.56
	11045	5523	1.65876E+000	9.49314E-001	0.00000E+000	1.66100E+000	-1.07388E-004	12	...........	-327.56
	11050	5525.5	1.66379E+000	9.56062E-001	0.00000E+000	1.66600E+000	-1.05788E-004	12	...........	-327.56
	11055	5528	1.66880E+000	9.61371E-001	0.00000E+000	1.67100E+000	-1.05555E-004	12	...........	-327.56
	11060	5530.5	1.67381E+000	9.70377E-001	0.00000E+000	1.67600E+000	-1.04455E-004	12	...........	-327.56
	11065	5533	1.67873E+000	9.85396E-001	0.00000E+000	1.68100E+000	-1.03888E-004	12	...........	-327.56
	11070	5535.5	1.68372E+000	9.92477E-001	0.00000E+000	1.68600E+000	-1.05388E-004	12	...........	-327.56
	11075	5538	1.68873E+000	1.00734E+000	0.00000E+000	1.69100E+000	-1.00188E-004	12	...........	-327.56
	11080	5540.5	1.69376E+000	1.01790E+000	0.00000E+000	1.69600E+000	-1.06255E-004	12	...........	-327.56
	11084	5542.5	1.69776E+000	1.03517E+000	0.00000E+000	1.70000E+000	-1.06755E-004	12	...........	-327.56