File: testing/data/240902_01c_MCL13_cswWE_CV20_initial_test.DTA
EXPLAIN
TAG	CV
TITLE	LABEL	Cyclic Voltammetry	Test &Identifier
DATE	LABEL	9/2/2024	Date
TIME	LABEL	15:56:02	Time
NOTES	NOTES	5	&Notes...

	WE: Ag wire
	RE: Ni/NiO
	CE: steel swirl
PSTAT	PSTAT	REF3000-48128	Potentiostat
VINIT	POTEN	0.00000E+000	T	Initial &E (V)
VLIMIT1	POTEN	1.70000E+000	F	Scan Limit &1 (V)
VLIMIT2	POTEN	0.00000E+000	F	Scan Limit &2 (V)
VFINAL	POTEN	0.00000E+000	T	Final &E (V)
SCANRATE	QUANT	2.00000E+001	&Scan Rate (mV/s)
STEPSIZE	QUANT	1.00000E+000	St&ep Size (mV)
CYCLES	IQUANT	0	C&ycles (#)
IMODE	SELECTOR	0	I/E Range &Mode
IRANGE	QUANT	5.00000E+001	&Max Current (mA)
AREA	QUANT	1.00000E+000	Electrode &Area (cm^2)
ELECTRODETYPE	SELECTOR	1	Electrode Type
STRIPPING	TOGGLE	F	Used for Stripping
CONDIT	TWOPARAM	F	1.50000E+001	0.00000E+000	Conditionin&g	Time(s)	E(V)
DELAY	TWOPARAM	T	3.00000E+001	1.00000E+000	Init. De&lay	Time(s)	Stab.(mV/s)
EQDELAY	QUANT	0.00000E+000	Equil. &Time (s)
IRCOMP	SELECTOR	0	IRCom&p
PFCOR	QUANT	5.00000E+001	PF Corr. (ohm)
SAMPLINGMODE	SELECTOR	1	Sampling &Mode
OCVCURVE	TABLE	11
	Pt	T	Vf	Vm	Ach	Over	Temp
	#	s	V vs. Ref.	V	V	bits	deg C
	0	0.25	-3.33749E-002	-3.33749E-002	-9.50755E-004	...........	-327.56
	1	0.5	-3.33826E-002	-3.37790E-002	-9.56021E-004	...........	-327.56
	2	0.75	-3.34399E-002	-3.46782E-002	-9.51821E-004	...........	-327.56
	3	1	-3.36528E-002	-3.64920E-002	-9.55221E-004	...........	-327.56
	4	1.25	-3.40650E-002	-3.23936E-002	-9.49155E-004	...........	-327.56
	5	1.5	-3.44202E-002	-3.35338E-002	-9.57155E-004	...........	-327.56
	6	1.75	-3.44068E-002	-3.47237E-002	-9.56888E-004	...........	-327.56
	7	2	-3.41842E-002	-3.54562E-002	-9.53355E-004	...........	-327.56
	8	2.25	-3.41716E-002	-3.48748E-002	-9.52421E-004	...........	-327.56
	9	2.5	-3.44510E-002	-3.52387E-002	-9.51221E-004	...........	-327.56
	10	2.75	-3.48483E-002	-3.81245E-002	-9.54888E-004	...........	-327.56
EOC	QUANT	-0.0348483	Open Circuit (V)
PSTATMODEL	IQUANT	5	Pstat Model
PSTATSECTION	LABEL	REF3000-48128	Pstat Section
PSTATSERIALNO	LABEL	48128	Pstat Serial Number
CTRLMODE	IQUANT	1	Control Mode
ELECTROMETER	IQUANT	0	RE=0 or CS=1
IESTAB	IQUANT	2	I/E Stability
CASPEED	IQUANT	4	Control Amp Speed
CONVENTION	IQUANT	1	Current Convention
ICHRANGE	IQUANT	2	Ich Range
ICHRANGEMODE	TOGGLE	F	Ich Auto Range
ICHOFFSETENABLE	TOGGLE	F	Ich Offset Enable
ICHOFFSET	QUANT	0	Ich Offset (V)
ICHFILTER	IQUANT	2	Ich Filter
VCHRANGE	IQUANT	3	Vch Range
VCHRANGEMODE	TOGGLE	T	Vch Auto Range
VCHOFFSETENABLE	TOGGLE	F	Vch Offset Enable
VCHOFFSET	QUANT	0	Vch Offset (V)
VCHFILTER	IQUANT	1	Vch Filter
ACHRANGE	IQUANT	2	Ach Range
ACHOFFSETENABLE	TOGGLE	F	Ach Offset Enable
ACHOFFSET	QUANT	0	Ach Offset (V)
ACHFILTER	IQUANT	1	Ach Filter
IERANGELOWERLIMIT	IQUANT	2	I/E Range Lower Limit
IERANGEMODE	TOGGLE	T	I/E AutoRange
IERANGE	IQUANT	11	I/E Range
POSFEEDENABLE	TOGGLE	F	Positive Feedback IR Comp
POSFEEDRESISTANCE	QUANT	0	Positive Feedback Resistance (ohm)
ACHSELECT	IQUANT	1	Ach Select
SENSECABLEID	IQUANT	14	Sense Cable ID
PWRCABLEID	IQUANT	7	Power Cable ID
DCCALDATE	LABEL	8/16/2024	DC Calibration Date
ACCALDATE	LABEL	8/16/2024	AC Calibration Date
THERMOSELECT	IQUANT	1	Thermo Select
FRAMEWORKVERSION	LABEL	7.10.3	Framework Version
INSTRUMENTVERSION	LABEL	4.91	Instrument Version
COMMVERSION	LABEL	5.10	Communications Version
CPUPLDVERSION	LABEL	6.00	CPU PLD Version
CTRLPLDVERSION	LABEL	3.21	CTRL PLD Version
PSTATPLDVERSION	LABEL	0.00	PSTAT PLD Version
COMPLIANCEVOLTAGE	IQUANT	0	Compliance Voltage
EXPERIMENTABORTED	TOGGLE	T	Experiment Aborted
CURVE	TABLE	2578
	Pt	T	Vf	Im	Vu	Sig	Ach	IERange	Over	Cycle	Temp
	#	s	V vs. Ref.	A	V	V	V	#	bits	#	deg C
	0	0.05	-3.33182E-002	5.29245E-004	0.00000E+000	-3.48499E-002	-2.68955E-003	11	...........	0	-327.56
	6	0.35	-2.90648E-002	1.34963E-003	0.00000E+000	-2.88500E-002	-2.67922E-003	9	...........	0	-327.56
	12	0.65	-2.31060E-002	1.80580E-003	0.00000E+000	-2.28499E-002	-2.68422E-003	9	...........	0	-327.56
	18	0.95	-1.63645E-002	3.13677E-003	0.00000E+000	-1.68499E-002	-2.68555E-003	10	...........	0	-327.56
	24	1.25	-1.04192E-002	4.22519E-003	0.00000E+000	-1.08500E-002	-2.67789E-003	10	...........	0	-327.56
	30	1.55	-4.41424E-003	4.83432E-003	0.00000E+000	-4.84991E-003	-2.68522E-003	10	...........	0	-327.56
	36	1.85	1.56934E-003	5.35026E-003	0.00000E+000	1.15007E-003	-2.67722E-003	10	...........	0	-327.56
	42	2.15	7.58341E-003	3.52649E-003	0.00000E+000	7.15005E-003	-2.68289E-003	10	...........	0	-327.56
	48	2.45	1.35617E-002	4.64638E-003	0.00000E+000	1.31500E-002	-2.67655E-003	10	...........	0	-327.56
	54	2.75	1.95510E-002	4.76795E-003	0.00000E+000	1.91501E-002	-2.68589E-003	10	...........	0	-327.56
	60	3.05	2.55436E-002	4.58342E-003	0.00000E+000	2.51501E-002	-2.68255E-003	10	...........	0	-327.56
	66	3.35	3.14975E-002	5.89315E-003	0.00000E+000	3.11500E-002	-2.67755E-003	10	...........	0	-327.56
	72	3.65	3.74898E-002	5.52034E-003	0.00000E+000	3.71501E-002	-2.67755E-003	10	...........	0	-327.56
	78	3.95	4.35060E-002	3.88787E-003	0.00000E+000	4.31501E-002	-2.68522E-003	10	...........	0	-327.56
	84	4.25	4.94803E-002	5.47446E-003	0.00000E+000	4.91500E-002	-2.68622E-003	10	...........	0	-327.56
	90	4.55	5.54485E-002	6.32271E-003	0.00000E+000	5.51500E-002	-2.68022E-003	10	...........	0	-327.56
	96	4.85	6.14419E-002	7.63145E-003	0.00000E+000	6.11501E-002	-2.68655E-003	10	...........	0	-327.56
	102	5.15	6.74683E-002	5.54431E-003	0.00000E+000	6.71501E-002	-2.68022E-003	10	...........	0	-327.56
	108	5.45	7.34238E-002	7.40948E-003	0.00000E+000	7.31500E-002	-2.67989E-003	10	...........	0	-327.56
	114	5.75	7.93920E-002	8.96717E-003	0.00000E+000	7.91501E-002	-2.68689E-003	10	...........	0	-327.56
	120	6.05	8.53927E-002	9.07001E-003	0.00000E+000	8.51501E-002	-2.68189E-003	10	...........	0	-327.56
	126	6.35	9.13363E-002	1.21256E-002	0.00000E+000	9.11500E-002	-2.68522E-003	10	...........	0	-327.56
	132	6.65	9.73492E-002	1.04820E-002	0.00000E+000	9.71501E-002	-2.69189E-003	10	...........	0	-327.56
	138	6.95	1.03361E-001	9.38196E-003	0.00000E+000	1.03150E-001	-2.67755E-003	10	...........	0	-327.56
	144	7.25	1.09337E-001	1.04655E-002	0.00000E+000	1.09150E-001	-2.68589E-003	10	...........	0	-327.56
	150	7.55	1.15325E-001	1.01307E-002	0.00000E+000	1.15150E-001	-2.68489E-003	10	...........	0	-327.56
	156	7.85	1.21327E-001	1.07615E-002	0.00000E+000	1.21150E-001	-2.67889E-003	10	...........	0	-327.56
	162	8.15	1.27312E-001	1.21450E-002	0.00000E+000	1.27150E-001	-2.68122E-003	10	...........	0	-327.56
	168	8.45	1.33295E-001	1.28125E-002	0.00000E+000	1.33150E-001	-2.68355E-003	10	...........	0	-327.56
	174	8.75	1.39252E-001	1.48264E-002	0.00000E+000	1.39150E-001	-2.68922E-003	10	...........	0	-327.56
	180	9.05	1.45250E-001	1.49382E-002	0.00000E+000	1.45150E-001	-2.68022E-003	10	...........	0	-327.56
	186	9.35	1.51262E-001	1.33693E-002	0.00000E+000	1.51150E-001	-2.68055E-003	10	...........	0	-327.56
	192	9.65	1.57258E-001	1.32417E-002	0.00000E+000	1.57150E-001	-2.68355E-003	10	...........	0	-327.56
	198	9.95	1.63229E-001	1.44687E-002	0.00000E+000	1.63150E-001	-2.68622E-003	10	...........	0	-327.56
	204	10.25	1.69200E-001	1.64975E-002	0.00000E+000	1.69150E-001	-2.68389E-003	10	...........	0	-327.56
	210	10.55	1.75177E-001	1.79485E-002	0.00000E+000	1.75150E-001	-2.68055E-003	10	...........	0	-327.56
	216	10.85	1.81078E-001	2.43560E-002	0.00000E+000	1.81150E-001	-2.67989E-003	10	...........	0	-327.56
	222	11.15	1.87142E-001	2.14520E-002	0.00000E+000	1.87150E-001	-2.68289E-003	10	...........	0	-327.56
	228	11.45	1.93107E-001	2.20235E-002	0.00000E+000	1.93150E-001	-2.67689E-003	10	...........	0	-327.56
	234	11.75	1.99085E-001	2.25797E-002	0.00000E+000	1.99150E-001	-2.67622E-003	10	...........	0	-327.56
	240	12.05	2.05069E-001	2.30762E-002	0.00000E+000	2.05150E-001	-2.68689E-003	10	...........	0	-327.56
	246	12.35	2.11039E-001	2.49863E-002	0.00000E+000	2.11150E-001	-2.67589E-003	10	...........	0	-327.56
	252	12.65	2.17025E-001	2.49550E-002	0.00000E+000	2.17150E-001	-2.68222E-003	10	...........	0	-327.56
	258	12.95	2.23545E-001	2.90775E-002	0.00000E+000	2.23150E-001	-2.68355E-003	11	...........	0	-327.56
	264	13.25	2.29536E-001	2.84485E-002	0.00000E+000	2.29150E-001	-2.68789E-003	11	...........	0	-327.56
	270	13.55	2.35526E-001	3.11799E-002	0.00000E+000	2.35150E-001	-2.68255E-003	11	...........	0	-327.56
	276	13.85	2.41515E-001	3.37238E-002	0.00000E+000	2.41150E-001	-2.68155E-003	11	...........	0	-327.56
	282	14.15	2.47503E-001	3.51961E-002	0.00000E+000	2.47150E-001	-2.67922E-003	11	...........	0	-327.56
	288	14.45	2.53483E-001	3.93667E-002	0.00000E+000	2.53150E-001	-2.67522E-003	11	...........	0	-327.56
	294	14.75	2.59440E-001	4.11958E-002	0.00000E+000	2.59150E-001	-2.69355E-003	11	...........	0	-327.56
	300	15.05	2.65437E-001	4.25082E-002	0.00000E+000	2.65150E-001	-2.67989E-003	11	...........	0	-327.56
	306	15.35	2.71277E-001	4.83930E-002	0.00000E+000	2.71150E-001	-2.68322E-003	11	...........	0	-327.56
	312	15.65	2.77281E-001	4.75625E-002	0.00000E+000	2.77150E-001	-2.68255E-003	11	...........	0	-327.56
	318	15.95	2.83322E-001	4.82376E-002	0.00000E+000	2.83150E-001	-2.67455E-003	11	...........	0	-327.56
	324	16.25	2.89326E-001	4.99750E-002	0.00000E+000	2.89150E-001	-2.68355E-003	11	...........	0	-327.56
	330	16.55	2.95243E-001	5.18016E-002	0.00000E+000	2.95150E-001	-2.68822E-003	11	...........	0	-327.56
	336	16.85	3.01224E-001	5.43097E-002	0.00000E+000	3.01150E-001	-2.69055E-003	11	...........	0	-327.56
	342	17.15	3.07245E-001	5.22252E-002	0.00000E+000	3.07150E-001	-2.69022E-003	11	...........	0	-327.56
	348	17.45	3.13199E-001	5.70632E-002	0.00000E+000	3.13150E-001	-2.68322E-003	11	...........	0	-327.56
	354	17.75	3.19213E-001	5.60261E-002	0.00000E+000	3.19150E-001	-2.68689E-003	11	...........	0	-327.56
	360	18.05	3.25101E-001	6.01873E-002	0.00000E+000	3.25150E-001	-2.68355E-003	11	...........	0	-327.56
	366	18.35	3.31077E-001	6.66279E-002	0.00000E+000	3.31150E-001	-2.68522E-003	11	...........	0	-327.56
	372	18.65	3.37114E-001	6.51521E-002	0.00000E+000	3.37150E-001	-2.67689E-003	11	...........	0	-327.56
	378	18.95	3.43080E-001	7.17499E-002	0.00000E+000	3.43150E-001	-2.67989E-003	11	...........	0	-327.56
	384	19.25	3.49031E-001	7.26369E-002	0.00000E+000	3.49150E-001	-2.68489E-003	11	...........	0	-327.56
	390	19.55	3.54944E-001	7.98257E-002	0.00000E+000	3.55150E-001	-2.68355E-003	11	...........	0	-327.56
	396	19.85	3.60956E-001	8.11251E-002	0.00000E+000	3.61150E-001	-2.68555E-003	11	...........	0	-327.56
	402	20.15	3.66961E-001	8.37812E-002	0.00000E+000	3.67150E-001	-2.68355E-003	11	...........	0	-327.56
	408	20.45	3.72888E-001	9.17976E-002	0.00000E+000	3.73150E-001	-2.68255E-003	11	...........	0	-327.56
	414	20.75	3.78847E-001	9.42499E-002	0.00000E+000	3.79150E-001	-2.68689E-003	11	...........	0	-327.56
	420	21.05	3.84835E-001	1.00753E-001	0.00000E+000	3.85150E-001	-2.68322E-003	11	...........	0	-327.56
	426	21.35	3.90851E-001	1.02846E-001	0.00000E+000	3.91150E-001	-2.67789E-003	11	...........	0	-327.56
	432	21.65	3.96834E-001	1.02736E-001	0.00000E+000	3.97150E-001	-2.67955E-003	11	...........	0	-327.56
	438	21.95	4.02781E-001	1.02023E-001	0.00000E+000	4.03150E-001	-2.67122E-003	11	...........	0	-327.56
	444	22.25	4.08787E-001	1.07810E-001	0.00000E+000	4.09150E-001	-2.67222E-003	11	...........	0	-327.56
	450	22.55	4.14811E-001	1.09245E-001	0.00000E+000	4.15150E-001	-2.67689E-003	11	...........	0	-327.56
	456	22.85	4.20792E-001	1.14784E-001	0.00000E+000	4.21150E-001	-2.68389E-003	11	...........	0	-327.56
	462	23.15	4.26685E-001	1.21359E-001	0.00000E+000	4.27150E-001	-2.67055E-003	11	...........	0	-327.56
	468	23.45	4.32683E-001	1.25157E-001	0.00000E+000	4.33150E-001	-2.68389E-003	11	...........	0	-327.56
	474	23.75	4.38699E-001	1.30018E-001	0.00000E+000	4.39150E-001	-2.67222E-003	11	...........	0	-327.56
	480	24.05	4.44704E-001	1.36463E-001	0.00000E+000	4.45150E-001	-2.67322E-003	11	...........	0	-327.56
	486	24.35	4.50629E-001	1.38257E-001	0.00000E+000	4.51150E-001	-2.67822E-003	11	...........	0	-327.56
	492	24.65	4.56667E-001	1.32809E-001	0.00000E+000	4.57150E-001	-2.66789E-003	11	...........	0	-327.56
	498	24.95	4.62698E-001	1.28409E-001	0.00000E+000	4.63150E-001	-2.67055E-003	11	...........	0	-327.56
	504	25.25	4.68711E-001	1.23717E-001	0.00000E+000	4.69150E-001	-2.68655E-003	11	...........	0	-327.56
	510	25.55	4.74642E-001	1.19436E-001	0.00000E+000	4.75150E-001	-2.68155E-003	11	...........	0	-327.56
	516	25.85	4.80703E-001	1.13288E-001	0.00000E+000	4.81150E-001	-2.67089E-003	11	...........	0	-327.56
	522	26.15	4.86737E-001	1.07862E-001	0.00000E+000	4.87150E-001	-2.67722E-003	11	...........	0	-327.56
	528	26.45	4.92762E-001	1.03874E-001	0.00000E+000	4.93150E-001	-2.67989E-003	11	...........	0	-327.56
	534	26.75	4.98801E-001	9.81711E-002	0.00000E+000	4.99150E-001	-2.67655E-003	11	...........	0	-327.56
	540	27.05	5.04776E-001	9.27057E-002	0.00000E+000	5.05150E-001	-2.67255E-003	11	...........	0	-327.56
	546	27.35	5.10775E-001	9.07362E-002	0.00000E+000	5.11150E-001	-2.67089E-003	11	...........	0	-327.56
	552	27.65	5.16786E-001	8.82466E-002	0.00000E+000	5.17150E-001	-2.68089E-003	11	...........	0	-327.56
	558	27.95	5.22820E-001	8.26342E-002	0.00000E+000	5.23150E-001	-2.67622E-003	11	...........	0	-327.56
	564	28.25	5.28773E-001	7.97894E-002	0.00000E+000	5.29150E-001	-2.66822E-003	11	...........	0	-327.56
	570	28.55	5.34816E-001	7.70353E-002	0.00000E+000	5.35150E-001	-2.68289E-003	11	...........	0	-327.56
	576	28.85	5.40933E-001	6.89506E-002	0.00000E+000	5.41150E-001	-2.67422E-003	11	...........	0	-327.56
	582	29.15	5.46968E-001	6.30671E-002	0.00000E+000	5.47150E-001	-2.67822E-003	11	...........	0	-327.56
	588	29.45	5.52910E-001	6.23231E-002	0.00000E+000	5.53150E-001	-2.67555E-003	11	...........	0	-327.56
	594	29.75	5.58953E-001	5.73529E-002	0.00000E+000	5.59150E-001	-2.66955E-003	11	...........	0	-327.56
	600	30.05	5.65024E-001	5.54312E-002	0.00000E+000	5.65150E-001	-2.67689E-003	11	...........	0	-327.56
	606	30.35	5.71002E-001	5.47550E-002	0.00000E+000	5.71150E-001	-2.67089E-003	11	...........	0	-327.56
	612	30.65	5.76945E-001	5.16199E-002	0.00000E+000	5.77150E-001	-2.67455E-003	11	...........	0	-327.56
	618	30.95	5.82973E-001	5.04035E-002	0.00000E+000	5.83150E-001	-2.67355E-003	11	...........	0	-327.56
	624	31.25	5.89023E-001	4.92033E-002	0.00000E+000	5.89150E-001	-2.67355E-003	11	...........	0	-327.56
	630	31.55	5.95039E-001	4.72602E-002	0.00000E+000	5.95150E-001	-2.67055E-003	11	...........	0	-327.56
	636	31.85	6.01023E-001	4.98642E-002	0.00000E+000	6.01150E-001	-2.67289E-003	11	...........	0	-327.56
	642	32.15	6.07003E-001	4.51010E-002	0.00000E+000	6.07150E-001	-2.68089E-003	11	...........	0	-327.56
	648	32.45	6.13041E-001	4.50502E-002	0.00000E+000	6.13150E-001	-2.68055E-003	11	...........	0	-327.56
	654	32.75	6.19020E-001	4.32864E-002	0.00000E+000	6.19150E-001	-2.66989E-003	11	...........	0	-327.56
	660	33.05	6.25024E-001	4.29814E-002	0.00000E+000	6.25150E-001	-2.69155E-003	11	...........	0	-327.56
	666	33.35	6.30964E-001	4.33740E-002	0.00000E+000	6.31150E-001	-2.67622E-003	11	...........	0	-327.56
	672	33.65	6.37021E-001	4.04106E-002	0.00000E+000	6.37150E-001	-2.67122E-003	11	...........	0	-327.56
	678	33.95	6.43022E-001	3.92243E-002	0.00000E+000	6.43150E-001	-2.67355E-003	11	...........	0	-327.56
	684	34.25	6.49028E-001	3.80460E-002	0.00000E+000	6.49150E-001	-2.67422E-003	11	...........	0	-327.56
	690	34.55	6.54945E-001	3.89258E-002	0.00000E+000	6.55150E-001	-2.67389E-003	11	...........	0	-327.56
	696	34.85	6.61020E-001	3.69987E-002	0.00000E+000	6.61150E-001	-2.67422E-003	11	...........	0	-327.56
	702	35.15	6.67010E-001	3.86756E-002	0.00000E+000	6.67150E-001	-2.67555E-003	11	...........	0	-327.56
	708	35.45	6.73007E-001	3.59965E-002	0.00000E+000	6.73150E-001	-2.67955E-003	11	...........	0	-327.56
	714	35.75	6.78953E-001	3.48557E-002	0.00000E+000	6.79150E-001	-2.67422E-003	11	...........	0	-327.56
	720	36.05	6.85017E-001	3.40533E-002	0.00000E+000	6.85150E-001	-2.68122E-003	11	...........	0	-327.56
	726	36.35	6.90982E-001	3.30620E-002	0.00000E+000	6.91150E-001	-2.67055E-003	11	...........	0	-327.56
	732	36.65	6.96996E-001	3.29423E-002	0.00000E+000	6.97150E-001	-2.67122E-003	11	...........	0	-327.56
	738	36.95	7.03028E-001	3.26806E-002	0.00000E+000	7.03150E-001	-2.68155E-003	11	...........	0	-327.56
	744	37.25	7.08992E-001	3.38361E-002	0.00000E+000	7.09150E-001	-2.67255E-003	11	...........	0	-327.56
	750	37.55	7.14989E-001	3.13068E-002	0.00000E+000	7.15150E-001	-2.66755E-003	11	...........	0	-327.56
	756	37.85	7.20960E-001	3.27859E-002	0.00000E+000	7.21150E-001	-2.67122E-003	11	...........	0	-327.56
	762	38.15	7.26952E-001	3.10778E-002	0.00000E+000	7.27150E-001	-2.67489E-003	11	...........	0	-327.56
	768	38.45	7.32964E-001	3.03791E-002	0.00000E+000	7.33150E-001	-2.67255E-003	11	...........	0	-327.56
	774	38.75	7.38921E-001	3.16739E-002	0.00000E+000	7.39150E-001	-2.67155E-003	11	...........	0	-327.56
	780	39.05	7.44961E-001	2.99484E-002	0.00000E+000	7.45150E-001	-2.67822E-003	11	...........	0	-327.56
	786	39.35	7.50957E-001	2.90819E-002	0.00000E+000	7.51150E-001	-2.67555E-003	11	...........	0	-327.56
	792	39.65	7.56944E-001	2.89905E-002	0.00000E+000	7.57150E-001	-2.66855E-003	11	...........	0	-327.56
	798	39.95	7.62900E-001	2.94781E-002	0.00000E+000	7.63150E-001	-2.67255E-003	11	...........	0	-327.56
	804	40.25	7.68906E-001	2.84942E-002	0.00000E+000	7.69150E-001	-2.66922E-003	11	...........	0	-327.56
	810	40.55	7.74927E-001	2.80419E-002	0.00000E+000	7.75150E-001	-2.68422E-003	11	...........	0	-327.56
	816	40.85	7.80943E-001	2.84435E-002	0.00000E+000	7.81150E-001	-2.67489E-003	11	...........	0	-327.56
	822	41.15	7.86871E-001	2.83980E-002	0.00000E+000	7.87150E-001	-2.66622E-003	11	...........	0	-327.56
	828	41.45	7.92896E-001	2.75490E-002	0.00000E+000	7.93150E-001	-2.68789E-003	11	...........	0	-327.56
	834	41.75	7.98932E-001	2.75672E-002	0.00000E+000	7.99150E-001	-2.68289E-003	11	...........	0	-327.56
	840	42.05	8.04954E-001	2.75306E-002	0.00000E+000	8.05150E-001	-2.67422E-003	11	...........	0	-327.56
	846	42.35	8.10855E-001	2.71854E-002	0.00000E+000	8.11150E-001	-2.67822E-003	11	...........	0	-327.56
	852	42.65	8.16902E-001	2.69483E-002	0.00000E+000	8.17150E-001	-2.67589E-003	11	...........	0	-327.56
	858	42.95	8.22849E-001	2.70104E-002	0.00000E+000	8.23150E-001	-2.67189E-003	11	...........	0	-327.56
	864	43.25	8.28875E-001	2.70728E-002	0.00000E+000	8.29150E-001	-2.67189E-003	11	...........	0	-327.56
	870	43.55	8.34784E-001	2.68651E-002	0.00000E+000	8.35150E-001	-2.67189E-003	11	...........	0	-327.56
	876	43.85	8.40814E-001	2.67741E-002	0.00000E+000	8.41150E-001	-2.67722E-003	11	...........	0	-327.56
	882	44.15	8.46845E-001	2.68167E-002	0.00000E+000	8.47150E-001	-2.67355E-003	11	...........	0	-327.56
	888	44.45	8.52836E-001	2.71156E-002	0.00000E+000	8.53150E-001	-2.67355E-003	11	...........	0	-327.56
	894	44.75	8.58751E-001	2.75433E-002	0.00000E+000	8.59150E-001	-2.66755E-003	11	...........	0	-327.56
	900	45.05	8.64789E-001	2.66769E-002	0.00000E+000	8.65150E-001	-2.68289E-003	11	...........	0	-327.56
	906	45.35	8.70783E-001	2.70510E-002	0.00000E+000	8.71150E-001	-2.67522E-003	11	...........	0	-327.56
	912	45.65	8.76821E-001	2.75497E-002	0.00000E+000	8.77150E-001	-2.67622E-003	11	...........	0	-327.56
	918	45.95	8.82838E-001	2.89935E-002	0.00000E+000	8.83150E-001	-2.67255E-003	11	...........	0	-327.56
	924	46.25	8.88773E-001	2.70435E-002	0.00000E+000	8.89150E-001	-2.68489E-003	11	...........	0	-327.56
	930	46.55	8.94748E-001	2.70506E-002	0.00000E+000	8.95150E-001	-2.67589E-003	11	...........	0	-327.56
	936	46.85	9.00801E-001	2.72740E-002	0.00000E+000	9.01150E-001	-2.67622E-003	11	...........	0	-327.56
	942	47.15	9.06818E-001	2.76930E-002	0.00000E+000	9.07150E-001	-2.67589E-003	11	...........	0	-327.56
	948	47.45	9.12760E-001	2.78465E-002	0.00000E+000	9.13150E-001	-2.68155E-003	11	...........	0	-327.56
	954	47.75	9.18750E-001	2.81478E-002	0.00000E+000	9.19150E-001	-2.68089E-003	11	...........	0	-327.56
	960	48.05	9.24738E-001	2.80152E-002	0.00000E+000	9.25150E-001	-2.67855E-003	11	...........	0	-327.56
	966	48.35	9.30742E-001	2.83780E-002	0.00000E+000	9.31150E-001	-2.68089E-003	11	...........	0	-327.56
	972	48.65	9.36679E-001	2.88823E-002	0.00000E+000	9.37150E-001	-2.67755E-003	11	...........	0	-327.56
	978	48.95	9.42684E-001	2.98173E-002	0.00000E+000	9.43150E-001	-2.67755E-003	11	...........	0	-327.56
	984	49.25	9.48718E-001	2.93123E-002	0.00000E+000	9.49150E-001	-2.67522E-003	11	...........	0	-327.56
	990	49.55	9.54740E-001	3.01895E-002	0.00000E+000	9.55150E-001	-2.67589E-003	11	...........	0	-327.56
	996	49.85	9.60657E-001	3.05129E-002	0.00000E+000	9.61150E-001	-2.67722E-003	11	...........	0	-327.56
	1002	50.15	9.66673E-001	3.12003E-002	0.00000E+000	9.67150E-001	-2.67789E-003	11	...........	0	-327.56
	1008	50.45	9.72678E-001	3.24075E-002	0.00000E+000	9.73150E-001	-2.67722E-003	11	...........	0	-327.56
	1014	50.75	9.78677E-001	3.35122E-002	0.00000E+000	9.79150E-001	-2.68055E-003	11	...........	0	-327.56
	1020	51.05	9.84679E-001	3.50688E-002	0.00000E+000	9.85150E-001	-2.68222E-003	11	...........	0	-327.56
	1026	51.35	9.90641E-001	3.71164E-002	0.00000E+000	9.91150E-001	-2.67155E-003	11	...........	0	-327.56
	1032	51.65	9.96621E-001	3.94012E-002	0.00000E+000	9.97150E-001	-2.66989E-003	11	...........	0	-327.56
	1038	51.95	1.00265E+000	4.18614E-002	0.00000E+000	1.00315E+000	-2.67689E-003	11	...........	0	-327.56
	1044	52.25	1.00865E+000	4.46278E-002	0.00000E+000	1.00915E+000	-2.67222E-003	11	...........	0	-327.56
	1050	52.55	1.01461E+000	4.75804E-002	0.00000E+000	1.01515E+000	-2.67855E-003	11	...........	0	-327.56
	1056	52.85	1.02054E+000	5.18378E-002	0.00000E+000	1.02115E+000	-2.67089E-003	11	...........	0	-327.56
	1062	53.15	1.02654E+000	5.43473E-002	0.00000E+000	1.02715E+000	-2.68355E-003	11	...........	0	-327.56
	1068	53.45	1.03252E+000	5.71148E-002	0.00000E+000	1.03315E+000	-2.67722E-003	11	...........	0	-327.56
	1074	53.75	1.03848E+000	6.00497E-002	0.00000E+000	1.03915E+000	-2.67289E-003	11	...........	0	-327.56
	1080	54.05	1.04443E+000	6.29503E-002	0.00000E+000	1.04515E+000	-2.68022E-003	11	...........	0	-327.56
	1086	54.35	1.05041E+000	6.53378E-002	0.00000E+000	1.05115E+000	-2.68489E-003	11	...........	0	-327.56
	1092	54.65	1.05642E+000	6.78532E-002	0.00000E+000	1.05715E+000	-2.68355E-003	11	...........	0	-327.56
	1098	54.95	1.06239E+000	7.01825E-002	0.00000E+000	1.06315E+000	-2.67455E-003	11	...........	0	-327.56
	1104	55.25	1.06831E+000	7.18474E-002	0.00000E+000	1.06915E+000	-2.67555E-003	11	...........	0	-327.56
	1110	55.55	1.07431E+000	7.55674E-002	0.00000E+000	1.07515E+000	-2.67222E-003	11	...........	0	-327.56
	1116	55.85	1.08031E+000	7.61443E-002	0.00000E+000	1.08115E+000	-2.67122E-003	11	...........	0	-327.56
	1122	56.15	1.08634E+000	7.56384E-002	0.00000E+000	1.08715E+000	-2.67955E-003	11	...........	0	-327.56
	1128	56.45	1.09224E+000	8.04881E-002	0.00000E+000	1.09315E+000	-2.67789E-003	11	...........	0	-327.56
	1134	56.75	1.09827E+000	7.77655E-002	0.00000E+000	1.09915E+000	-2.66955E-003	11	...........	0	-327.56
	1140	57.05	1.10428E+000	8.09055E-002	0.00000E+000	1.10515E+000	-2.67755E-003	11	...........	0	-327.56
	1146	57.35	1.11024E+000	8.44866E-002	0.00000E+000	1.11115E+000	-2.67722E-003	11	...........	0	-327.56
	1152	57.65	1.11621E+000	7.83908E-002	0.00000E+000	1.11715E+000	-2.68255E-003	11	...........	0	-327.56
	1158	57.95	1.12226E+000	7.78444E-002	0.00000E+000	1.12315E+000	-2.66989E-003	11	...........	0	-327.56
	1164	58.25	1.12824E+000	7.96172E-002	0.00000E+000	1.12915E+000	-2.66922E-003	11	...........	0	-327.56
	1170	58.55	1.13424E+000	7.84220E-002	0.00000E+000	1.13515E+000	-2.67822E-003	11	...........	0	-327.56
	1176	58.85	1.14016E+000	7.77492E-002	0.00000E+000	1.14115E+000	-2.68089E-003	11	...........	0	-327.56
	1182	59.15	1.14622E+000	7.70293E-002	0.00000E+000	1.14715E+000	-2.67222E-003	11	...........	0	-327.56
	1188	59.45	1.15222E+000	7.68425E-002	0.00000E+000	1.15315E+000	-2.67322E-003	11	...........	0	-327.56
	1194	59.75	1.15824E+000	7.70212E-002	0.00000E+000	1.15915E+000	-2.66689E-003	11	...........	0	-327.56
	1200	60.05	1.16422E+000	7.62746E-002	0.00000E+000	1.16515E+000	-2.68322E-003	11	...........	0	-327.56
	1206	60.35	1.17017E+000	7.60739E-002	0.00000E+000	1.17115E+000	-2.67855E-003	11	...........	0	-327.56
	1212	60.65	1.17622E+000	7.60668E-002	0.00000E+000	1.17715E+000	-2.67889E-003	11	...........	0	-327.56
	1218	60.95	1.18222E+000	7.61667E-002	0.00000E+000	1.18315E+000	-2.67222E-003	11	...........	0	-327.56
	1224	61.25	1.18821E+000	7.61826E-002	0.00000E+000	1.18915E+000	-2.67489E-003	11	...........	0	-327.56
	1230	61.55	1.19415E+000	7.57672E-002	0.00000E+000	1.19515E+000	-2.66855E-003	11	...........	0	-327.56
	1236	61.85	1.20020E+000	7.81258E-002	0.00000E+000	1.20115E+000	-2.67422E-003	11	...........	0	-327.56
	1242	62.15	1.20620E+000	7.60973E-002	0.00000E+000	1.20715E+000	-2.67922E-003	11	...........	0	-327.56
	1248	62.45	1.21219E+000	7.63863E-002	0.00000E+000	1.21315E+000	-2.67489E-003	11	...........	0	-327.56
	1254	62.75	1.21812E+000	7.74434E-002	0.00000E+000	1.21915E+000	-2.68389E-003	11	...........	0	-327.56
	1260	63.05	1.22418E+000	7.74348E-002	0.00000E+000	1.22515E+000	-2.67922E-003	11	...........	0	-327.56
	1266	63.35	1.23015E+000	7.79821E-002	0.00000E+000	1.23115E+000	-2.67922E-003	11	...........	0	-327.56
	1272	63.65	1.23618E+000	7.90902E-002	0.00000E+000	1.23715E+000	-2.68322E-003	11	...........	0	-327.56
	1278	63.95	1.24211E+000	7.97516E-002	0.00000E+000	1.24315E+000	-2.68055E-003	11	...........	0	-327.56
	1284	64.25	1.24816E+000	8.12880E-002	0.00000E+000	1.24915E+000	-2.67022E-003	11	...........	0	-327.56
	1290	64.55	1.25411E+000	8.28326E-002	0.00000E+000	1.25515E+000	-2.68289E-003	11	...........	0	-327.56
	1296	64.85	1.26012E+000	8.45545E-002	0.00000E+000	1.26115E+000	-2.68089E-003	11	...........	0	-327.56
	1302	65.15	1.26610E+000	8.70303E-002	0.00000E+000	1.26715E+000	-2.68055E-003	11	...........	0	-327.56
	1308	65.45	1.27207E+000	8.92474E-002	0.00000E+000	1.27315E+000	-2.68289E-003	11	...........	0	-327.56
	1314	65.75	1.27801E+000	9.30716E-002	0.00000E+000	1.27915E+000	-2.67622E-003	11	...........	0	-327.56
	1320	66.05	1.28404E+000	9.61627E-002	0.00000E+000	1.28515E+000	-2.67489E-003	11	...........	0	-327.56
	1326	66.35	1.28997E+000	1.09659E-001	0.00000E+000	1.29115E+000	-2.68089E-003	11	...........	0	-327.56
	1332	66.65	1.29592E+000	1.04511E-001	0.00000E+000	1.29715E+000	-2.68255E-003	11	...........	0	-327.56
	1338	66.95	1.30192E+000	1.10495E-001	0.00000E+000	1.30315E+000	-2.66989E-003	11	...........	0	-327.56
	1344	67.25	1.30795E+000	1.15579E-001	0.00000E+000	1.30915E+000	-2.67855E-003	11	...........	0	-327.56
	1350	67.55	1.31392E+000	1.22232E-001	0.00000E+000	1.31515E+000	-2.68055E-003	11	...........	0	-327.56
	1356	67.85	1.31985E+000	1.29459E-001	0.00000E+000	1.32115E+000	-2.68422E-003	11	...........	0	-327.56
	1362	68.15	1.32583E+000	1.37363E-001	0.00000E+000	1.32715E+000	-2.68522E-003	11	...........	0	-327.56
	1368	68.45	1.33177E+000	1.45727E-001	0.00000E+000	1.33315E+000	-2.67655E-003	11	...........	0	-327.56
	1374	68.75	1.33778E+000	1.54558E-001	0.00000E+000	1.33915E+000	-2.68222E-003	11	...........	0	-327.56
	1380	69.05	1.34377E+000	1.63706E-001	0.00000E+000	1.34515E+000	-2.68955E-003	11	...........	0	-327.56
	1386	69.35	1.34968E+000	1.73652E-001	0.00000E+000	1.35115E+000	-2.67955E-003	11	...........	0	-327.56
	1392	69.65	1.35566E+000	1.84224E-001	0.00000E+000	1.35715E+000	-2.67422E-003	11	...........	0	-327.56
	1398	69.95	1.36168E+000	1.93439E-001	0.00000E+000	1.36315E+000	-2.67289E-003	11	...........	0	-327.56
	1404	70.25	1.36767E+000	2.04455E-001	0.00000E+000	1.36915E+000	-2.67389E-003	11	...........	0	-327.56
	1410	70.55	1.37358E+000	2.14843E-001	0.00000E+000	1.37515E+000	-2.68122E-003	11	...........	0	-327.56
	1416	70.85	1.37956E+000	2.25899E-001	0.00000E+000	1.38115E+000	-2.68089E-003	11	...........	0	-327.56
	1422	71.15	1.38557E+000	2.36397E-001	0.00000E+000	1.38715E+000	-2.67522E-003	11	...........	0	-327.56
	1428	71.45	1.39153E+000	2.47227E-001	0.00000E+000	1.39315E+000	-2.68389E-003	11	...........	0	-327.56
	1434	71.75	1.39745E+000	2.59229E-001	0.00000E+000	1.39915E+000	-2.68055E-003	11	...........	0	-327.56
	1440	72.05	1.40377E+000	2.70552E-001	0.00000E+000	1.40515E+000	-2.68555E-003	12	...........	0	-327.56
	1446	72.35	1.40980E+000	2.82133E-001	0.00000E+000	1.41115E+000	-2.66655E-003	12	...........	0	-327.56
	1452	72.65	1.41580E+000	2.93599E-001	0.00000E+000	1.41715E+000	-2.67922E-003	12	...........	0	-327.56
	1458	72.95	1.42169E+000	3.06086E-001	0.00000E+000	1.42315E+000	-2.67722E-003	12	...........	0	-327.56
	1464	73.25	1.42771E+000	3.18259E-001	0.00000E+000	1.42915E+000	-2.67655E-003	12	...........	0	-327.56
	1470	73.55	1.43366E+000	3.30849E-001	0.00000E+000	1.43515E+000	-2.67589E-003	12	...........	0	-327.56
	1476	73.85	1.43972E+000	3.42389E-001	0.00000E+000	1.44115E+000	-2.68055E-003	12	...........	0	-327.56
	1482	74.15	1.44570E+000	3.55333E-001	0.00000E+000	1.44715E+000	-2.66722E-003	12	...........	0	-327.56
	1488	74.45	1.45163E+000	3.67884E-001	0.00000E+000	1.45315E+000	-2.68155E-003	12	...........	0	-327.56
	1494	74.75	1.45764E+000	3.80546E-001	0.00000E+000	1.45915E+000	-2.66955E-003	12	...........	0	-327.56
	1500	75.05	1.46365E+000	3.93199E-001	0.00000E+000	1.46515E+000	-2.68089E-003	12	...........	0	-327.56
	1506	75.35	1.46963E+000	4.06458E-001	0.00000E+000	1.47115E+000	-2.67189E-003	12	...........	0	-327.56
	1512	75.65	1.47557E+000	4.18840E-001	0.00000E+000	1.47715E+000	-2.68422E-003	12	...........	0	-327.56
	1518	75.95	1.48154E+000	4.31248E-001	0.00000E+000	1.48315E+000	-2.67755E-003	12	...........	0	-327.56
	1524	76.25	1.48758E+000	4.44200E-001	0.00000E+000	1.48915E+000	-2.67389E-003	12	...........	0	-327.56
	1530	76.55	1.49357E+000	4.56917E-001	0.00000E+000	1.49515E+000	-2.67989E-003	12	...........	0	-327.56
	1536	76.85	1.49946E+000	4.70212E-001	0.00000E+000	1.50115E+000	-2.68755E-003	12	...........	0	-327.56
	1542	77.15	1.50549E+000	4.82357E-001	0.00000E+000	1.50715E+000	-2.67889E-003	12	...........	0	-327.56
	1548	77.45	1.51151E+000	4.96573E-001	0.00000E+000	1.51315E+000	-2.67089E-003	12	...........	0	-327.56
	1554	77.75	1.51749E+000	5.08987E-001	0.00000E+000	1.51915E+000	-2.67689E-003	12	...........	0	-327.56
	1560	78.05	1.52341E+000	5.21938E-001	0.00000E+000	1.52515E+000	-2.68022E-003	12	...........	0	-327.56
	1566	78.35	1.52945E+000	5.36019E-001	0.00000E+000	1.53115E+000	-2.67522E-003	12	...........	0	-327.56
	1572	78.65	1.53543E+000	5.48145E-001	0.00000E+000	1.53715E+000	-2.68655E-003	12	...........	0	-327.56
	1578	78.95	1.54138E+000	5.62397E-001	0.00000E+000	1.54315E+000	-2.67389E-003	12	...........	0	-327.56
	1584	79.25	1.54739E+000	5.73872E-001	0.00000E+000	1.54915E+000	-2.67555E-003	12	...........	0	-327.56
	1590	79.55	1.55337E+000	5.88383E-001	0.00000E+000	1.55515E+000	-2.67922E-003	12	...........	0	-327.56
	1596	79.85	1.55933E+000	6.01234E-001	0.00000E+000	1.56115E+000	-2.67655E-003	12	...........	0	-327.56
	1602	80.15	1.56533E+000	6.15607E-001	0.00000E+000	1.56715E+000	-2.68589E-003	12	...........	0	-327.56
	1608	80.45	1.57133E+000	6.28505E-001	0.00000E+000	1.57315E+000	-2.67889E-003	12	...........	0	-327.56
	1614	80.75	1.57731E+000	6.40904E-001	0.00000E+000	1.57915E+000	-2.67322E-003	12	...........	0	-327.56
	1620	81.05	1.58327E+000	6.55489E-001	0.00000E+000	1.58515E+000	-2.67089E-003	12	...........	0	-327.56
	1626	81.35	1.58927E+000	6.68656E-001	0.00000E+000	1.59115E+000	-2.67722E-003	12	...........	0	-327.56
	1632	81.65	1.59526E+000	6.81643E-001	0.00000E+000	1.59715E+000	-2.66855E-003	12	...........	0	-327.56
	1638	81.95	1.60122E+000	6.95580E-001	0.00000E+000	1.60315E+000	-2.68089E-003	12	...........	0	-327.56
	1644	82.25	1.60718E+000	7.08465E-001	0.00000E+000	1.60915E+000	-2.67389E-003	12	...........	0	-327.56
	1650	82.55	1.61320E+000	7.22302E-001	0.00000E+000	1.61515E+000	-2.68055E-003	12	...........	0	-327.56
	1656	82.85	1.61919E+000	7.36536E-001	0.00000E+000	1.62115E+000	-2.67489E-003	12	...........	0	-327.56
	1662	83.15	1.62519E+000	7.50173E-001	0.00000E+000	1.62715E+000	-2.67322E-003	12	...........	0	-327.56
	1668	83.45	1.63108E+000	7.65246E-001	0.00000E+000	1.63315E+000	-2.67155E-003	12	...........	0	-327.56
	1674	83.75	1.63713E+000	7.78871E-001	0.00000E+000	1.63915E+000	-2.67589E-003	12	...........	0	-327.56
	1680	84.05	1.64313E+000	7.91624E-001	0.00000E+000	1.64515E+000	-2.67522E-003	12	...........	0	-327.56
	1686	84.35	1.64912E+000	8.07030E-001	0.00000E+000	1.65115E+000	-2.67855E-003	12	...........	0	-327.56
	1692	84.65	1.65502E+000	8.20226E-001	0.00000E+000	1.65715E+000	-2.67089E-003	12	...........	0	-327.56
	1698	84.95	1.66103E+000	8.34931E-001	0.00000E+000	1.66315E+000	-2.67922E-003	12	...........	0	-327.56
	1704	85.25	1.66704E+000	8.49206E-001	0.00000E+000	1.66915E+000	-2.67789E-003	12	...........	0	-327.56
	1710	85.55	1.67302E+000	8.63136E-001	0.00000E+000	1.67515E+000	-2.66689E-003	12	...........	0	-327.56
	1716	85.85	1.67894E+000	8.77520E-001	0.00000E+000	1.68115E+000	-2.67322E-003	12	...........	0	-327.56
	1722	86.15	1.68495E+000	8.91923E-001	0.00000E+000	1.68715E+000	-2.67622E-003	12	...........	0	-327.56
	1728	86.45	1.69099E+000	9.07062E-001	0.00000E+000	1.69315E+000	-2.67922E-003	12	...........	0	-327.56
	1734	86.75	1.69695E+000	9.20994E-001	0.00000E+000	1.69915E+000	-2.67589E-003	12	...........	0	-327.56
	1740	87.05	1.69295E+000	9.14519E-001	0.00000E+000	1.69515E+000	-2.67889E-003	12	...........	0	-327.56
	1746	87.35	1.68697E+000	9.03065E-001	0.00000E+000	1.68915E+000	-2.67889E-003	12	...........	0	-327.56
	1752	87.65	1.68095E+000	8.92700E-001	0.00000E+000	1.68315E+000	-2.67922E-003	12	...........	0	-327.56
	1758	87.95	1.67503E+000	8.82657E-001	0.00000E+000	1.67715E+000	-2.67322E-003	12	...........	0	-327.56
	1764	88.25	1.66901E+000	8.68667E-001	0.00000E+000	1.67115E+000	-2.68189E-003	12	...........	0	-327.56
	1770	88.55	1.66301E+000	8.57713E-001	0.00000E+000	1.66515E+000	-2.67589E-003	12	...........	0	-327.56
	1776	88.85	1.65701E+000	8.45848E-001	0.00000E+000	1.65915E+000	-2.67289E-003	12	...........	0	-327.56
	1782	89.15	1.65107E+000	8.32266E-001	0.00000E+000	1.65315E+000	-2.67455E-003	12	...........	0	-327.56
	1788	89.45	1.64509E+000	8.20035E-001	0.00000E+000	1.64715E+000	-2.67289E-003	12	...........	0	-327.56
	1794	89.75	1.63911E+000	8.07932E-001	0.00000E+000	1.64115E+000	-2.68022E-003	12	...........	0	-327.56
	1800	90.05	1.63312E+000	7.97491E-001	0.00000E+000	1.63515E+000	-2.68889E-003	12	...........	0	-327.56
	1806	90.35	1.62709E+000	7.85320E-001	0.00000E+000	1.62915E+000	-2.67889E-003	12	...........	0	-327.56
	1812	90.65	1.62117E+000	7.73564E-001	0.00000E+000	1.62315E+000	-2.67255E-003	12	...........	0	-327.56
	1818	90.95	1.61516E+000	7.61530E-001	0.00000E+000	1.61715E+000	-2.66989E-003	12	...........	0	-327.56
	1824	91.25	1.60915E+000	7.48447E-001	0.00000E+000	1.61115E+000	-2.67755E-003	12	...........	0	-327.56
	1830	91.55	1.60314E+000	7.35293E-001	0.00000E+000	1.60515E+000	-2.66789E-003	12	...........	0	-327.56
	1836	91.85	1.59723E+000	7.23763E-001	0.00000E+000	1.59915E+000	-2.66789E-003	12	...........	0	-327.56
	1842	92.15	1.59122E+000	7.12003E-001	0.00000E+000	1.59315E+000	-2.67255E-003	12	...........	0	-327.56
	1848	92.45	1.58524E+000	6.98447E-001	0.00000E+000	1.58715E+000	-2.67922E-003	12	...........	0	-327.56
	1854	92.75	1.57919E+000	6.86460E-001	0.00000E+000	1.58115E+000	-2.67422E-003	12	...........	0	-327.56
	1860	93.05	1.57331E+000	6.74726E-001	0.00000E+000	1.57515E+000	-2.68222E-003	12	...........	0	-327.56
	1866	93.35	1.56730E+000	6.61378E-001	0.00000E+000	1.56915E+000	-2.67255E-003	12	...........	0	-327.56
	1872	93.65	1.56130E+000	6.50335E-001	0.00000E+000	1.56315E+000	-2.67089E-003	12	...........	0	-327.56
	1878	93.95	1.55530E+000	6.37235E-001	0.00000E+000	1.55715E+000	-2.68355E-003	12	...........	0	-327.56
	1884	94.25	1.54927E+000	6.25349E-001	0.00000E+000	1.55115E+000	-2.67022E-003	12	...........	0	-327.56
	1890	94.55	1.54336E+000	6.13152E-001	0.00000E+000	1.54515E+000	-2.67555E-003	12	...........	0	-327.56
	1896	94.85	1.53736E+000	6.00802E-001	0.00000E+000	1.53915E+000	-2.67989E-003	12	...........	0	-327.56
	1902	95.15	1.53137E+000	5.88542E-001	0.00000E+000	1.53315E+000	-2.67589E-003	12	...........	0	-327.56
	1908	95.45	1.52538E+000	5.75181E-001	0.00000E+000	1.52715E+000	-2.67789E-003	12	...........	0	-327.56
	1914	95.75	1.51947E+000	5.64219E-001	0.00000E+000	1.52115E+000	-2.68422E-003	12	...........	0	-327.56
	1920	96.05	1.51346E+000	5.52191E-001	0.00000E+000	1.51515E+000	-2.67789E-003	12	...........	0	-327.56
	1926	96.35	1.50743E+000	5.39883E-001	0.00000E+000	1.50915E+000	-2.66822E-003	12	...........	0	-327.56
	1932	96.65	1.50143E+000	5.28517E-001	0.00000E+000	1.50315E+000	-2.68155E-003	12	...........	0	-327.56
	1938	96.95	1.49551E+000	5.16386E-001	0.00000E+000	1.49715E+000	-2.67455E-003	12	...........	0	-327.56
	1944	97.25	1.48951E+000	5.03503E-001	0.00000E+000	1.49115E+000	-2.67189E-003	12	...........	0	-327.56
	1950	97.55	1.48350E+000	4.91942E-001	0.00000E+000	1.48515E+000	-2.68122E-003	12	...........	0	-327.56
	1956	97.85	1.47750E+000	4.81157E-001	0.00000E+000	1.47915E+000	-2.67422E-003	12	...........	0	-327.56
	1962	98.15	1.47157E+000	4.68727E-001	0.00000E+000	1.47315E+000	-2.68689E-003	12	...........	0	-327.56
	1968	98.45	1.46557E+000	4.57190E-001	0.00000E+000	1.46715E+000	-2.68189E-003	12	...........	0	-327.56
	1974	98.75	1.45956E+000	4.46007E-001	0.00000E+000	1.46115E+000	-2.67289E-003	12	...........	0	-327.56
	1980	99.05	1.45355E+000	4.34798E-001	0.00000E+000	1.45515E+000	-2.67155E-003	12	...........	0	-327.56
	1986	99.35	1.44757E+000	4.23297E-001	0.00000E+000	1.44915E+000	-2.67689E-003	12	...........	0	-327.56
	1992	99.65	1.44162E+000	4.11848E-001	0.00000E+000	1.44315E+000	-2.66955E-003	12	...........	0	-327.56
	1998	99.95	1.43565E+000	4.00424E-001	0.00000E+000	1.43715E+000	-2.67455E-003	12	...........	0	-327.56
	2004	100.25	1.42963E+000	3.89448E-001	0.00000E+000	1.43115E+000	-2.67122E-003	12	...........	0	-327.56
	2010	100.55	1.42367E+000	3.78573E-001	0.00000E+000	1.42515E+000	-2.67055E-003	12	...........	0	-327.56
	2016	100.85	1.41771E+000	3.67863E-001	0.00000E+000	1.41915E+000	-2.68355E-003	12	...........	0	-327.56
	2022	101.15	1.41172E+000	3.56946E-001	0.00000E+000	1.41315E+000	-2.66089E-003	12	...........	0	-327.56
	2028	101.45	1.40569E+000	3.46510E-001	0.00000E+000	1.40715E+000	-2.67722E-003	12	...........	0	-327.56
	2034	101.75	1.39974E+000	3.35696E-001	0.00000E+000	1.40115E+000	-2.67355E-003	12	...........	0	-327.56
	2040	102.05	1.39375E+000	3.25032E-001	0.00000E+000	1.39515E+000	-2.66755E-003	12	...........	0	-327.56
	2046	102.35	1.38776E+000	3.14763E-001	0.00000E+000	1.38915E+000	-2.67522E-003	12	...........	0	-327.56
	2052	102.65	1.38175E+000	3.04623E-001	0.00000E+000	1.38315E+000	-2.66922E-003	12	...........	0	-327.56
	2058	102.95	1.37579E+000	2.93816E-001	0.00000E+000	1.37715E+000	-2.67289E-003	12	...........	0	-327.56
	2064	103.25	1.36974E+000	2.83469E-001	0.00000E+000	1.37115E+000	-2.66655E-003	12	...........	0	-327.56
	2070	103.55	1.36381E+000	2.73585E-001	0.00000E+000	1.36515E+000	-2.67789E-003	12	...........	0	-327.56
	2076	103.85	1.35780E+000	2.63164E-001	0.00000E+000	1.35915E+000	-2.67022E-003	12	...........	0	-327.56
	2082	104.15	1.35183E+000	2.53310E-001	0.00000E+000	1.35315E+000	-2.67955E-003	12	...........	0	-327.56
	2088	104.45	1.34580E+000	2.43076E-001	0.00000E+000	1.34715E+000	-2.67022E-003	12	...........	0	-327.56
	2094	104.75	1.33959E+000	2.32409E-001	0.00000E+000	1.34115E+000	-2.67422E-003	11	...........	0	-327.56
	2100	105.05	1.33362E+000	2.22709E-001	0.00000E+000	1.33515E+000	-2.68289E-003	11	...........	0	-327.56
	2106	105.35	1.32765E+000	2.12728E-001	0.00000E+000	1.32915E+000	-2.68155E-003	11	...........	0	-327.56
	2112	105.65	1.32168E+000	2.03117E-001	0.00000E+000	1.32315E+000	-2.67522E-003	11	...........	0	-327.56
	2118	105.95	1.31573E+000	1.93498E-001	0.00000E+000	1.31715E+000	-2.68255E-003	11	...........	0	-327.56
	2124	106.25	1.30977E+000	1.84142E-001	0.00000E+000	1.31115E+000	-2.67755E-003	11	...........	0	-327.56
	2130	106.55	1.30374E+000	1.74804E-001	0.00000E+000	1.30515E+000	-2.67555E-003	11	...........	0	-327.56
	2136	106.85	1.29780E+000	1.66303E-001	0.00000E+000	1.29915E+000	-2.68189E-003	11	...........	0	-327.56
	2142	107.15	1.29183E+000	1.57426E-001	0.00000E+000	1.29315E+000	-2.68022E-003	11	...........	0	-327.56
	2148	107.45	1.28585E+000	1.48996E-001	0.00000E+000	1.28715E+000	-2.67389E-003	11	...........	0	-327.56
	2154	107.75	1.27983E+000	1.40958E-001	0.00000E+000	1.28115E+000	-2.68722E-003	11	...........	0	-327.56
	2160	108.05	1.27387E+000	1.33316E-001	0.00000E+000	1.27515E+000	-2.67955E-003	11	...........	0	-327.56
	2166	108.35	1.26785E+000	1.25753E-001	0.00000E+000	1.26915E+000	-2.68455E-003	11	...........	0	-327.56
	2172	108.65	1.26196E+000	1.18289E-001	0.00000E+000	1.26315E+000	-2.66489E-003	11	...........	0	-327.56
	2178	108.95	1.25598E+000	1.11265E-001	0.00000E+000	1.25715E+000	-2.67789E-003	11	...........	0	-327.56
	2184	109.25	1.24995E+000	1.04480E-001	0.00000E+000	1.25115E+000	-2.68155E-003	11	...........	0	-327.56
	2190	109.55	1.24399E+000	9.79691E-002	0.00000E+000	1.24515E+000	-2.67255E-003	11	...........	0	-327.56
	2196	109.85	1.23807E+000	9.15143E-002	0.00000E+000	1.23915E+000	-2.67089E-003	11	...........	0	-327.56
	2202	110.15	1.23213E+000	8.54446E-002	0.00000E+000	1.23315E+000	-2.67889E-003	11	...........	0	-327.56
	2208	110.45	1.22613E+000	7.94140E-002	0.00000E+000	1.22715E+000	-2.67689E-003	11	...........	0	-327.56
	2214	110.75	1.22015E+000	7.35979E-002	0.00000E+000	1.22115E+000	-2.68255E-003	11	...........	0	-327.56
	2220	111.05	1.21426E+000	6.78721E-002	0.00000E+000	1.21515E+000	-2.68055E-003	11	...........	0	-327.56
	2226	111.35	1.20829E+000	6.24534E-002	0.00000E+000	1.20915E+000	-2.66422E-003	11	...........	0	-327.56
	2232	111.65	1.20229E+000	5.92227E-002	0.00000E+000	1.20315E+000	-2.68289E-003	11	...........	0	-327.56
	2238	111.95	1.19634E+000	5.33608E-002	0.00000E+000	1.19715E+000	-2.68422E-003	11	...........	0	-327.56
	2244	112.25	1.19043E+000	4.88479E-002	0.00000E+000	1.19115E+000	-2.67755E-003	11	...........	0	-327.56
	2250	112.55	1.18443E+000	4.46321E-002	0.00000E+000	1.18515E+000	-2.67355E-003	11	...........	0	-327.56
	2256	112.85	1.17844E+000	4.10105E-002	0.00000E+000	1.17915E+000	-2.67555E-003	11	...........	0	-327.56
	2262	113.15	1.17245E+000	3.79927E-002	0.00000E+000	1.17315E+000	-2.67955E-003	11	...........	0	-327.56
	2268	113.45	1.16649E+000	3.52893E-002	0.00000E+000	1.16715E+000	-2.67055E-003	11	...........	0	-327.56
	2274	113.75	1.16051E+000	3.30988E-002	0.00000E+000	1.16115E+000	-2.67322E-003	11	...........	0	-327.56
	2280	114.05	1.15450E+000	3.12318E-002	0.00000E+000	1.15515E+000	-2.67322E-003	11	...........	0	-327.56
	2286	114.35	1.14848E+000	2.94253E-002	0.00000E+000	1.14915E+000	-2.67789E-003	11	...........	0	-327.56
	2292	114.65	1.14253E+000	2.80735E-002	0.00000E+000	1.14315E+000	-2.67689E-003	11	...........	0	-327.56
	2298	114.95	1.13655E+000	2.69367E-002	0.00000E+000	1.13715E+000	-2.66822E-003	11	...........	0	-327.56
	2304	115.25	1.13055E+000	2.55641E-002	0.00000E+000	1.13115E+000	-2.67089E-003	11	...........	0	-327.56
	2310	115.55	1.12458E+000	2.47478E-002	0.00000E+000	1.12515E+000	-2.67089E-003	11	...........	0	-327.56
	2316	115.85	1.11804E+000	2.37036E-002	0.00000E+000	1.11915E+000	-2.68322E-003	10	...........	0	-327.56
	2322	116.15	1.11211E+000	2.27621E-002	0.00000E+000	1.11315E+000	-2.67989E-003	10	...........	0	-327.56
	2328	116.45	1.10612E+000	2.22344E-002	0.00000E+000	1.10715E+000	-2.67655E-003	10	...........	0	-327.56
	2334	116.75	1.10011E+000	2.15315E-002	0.00000E+000	1.10115E+000	-2.68722E-003	10	...........	0	-327.56
	2340	117.05	1.09410E+000	2.11215E-002	0.00000E+000	1.09515E+000	-2.67389E-003	10	...........	0	-327.56
	2346	117.35	1.08816E+000	2.04481E-002	0.00000E+000	1.08915E+000	-2.67989E-003	10	...........	0	-327.56
	2352	117.65	1.08215E+000	2.04822E-002	0.00000E+000	1.08315E+000	-2.66589E-003	10	...........	0	-327.56
	2358	117.95	1.07612E+000	1.99220E-002	0.00000E+000	1.07715E+000	-2.68355E-003	10	...........	0	-327.56
	2364	118.25	1.07014E+000	1.97653E-002	0.00000E+000	1.07115E+000	-2.67055E-003	10	...........	0	-327.56
	2370	118.55	1.06419E+000	1.87833E-002	0.00000E+000	1.06515E+000	-2.67289E-003	10	...........	0	-327.56
	2376	118.85	1.05821E+000	1.82152E-002	0.00000E+000	1.05915E+000	-2.66989E-003	10	...........	0	-327.56
	2382	119.15	1.05217E+000	1.94324E-002	0.00000E+000	1.05315E+000	-2.67689E-003	10	...........	0	-327.56
	2388	119.45	1.04613E+000	2.01653E-002	0.00000E+000	1.04715E+000	-2.68089E-003	10	...........	0	-327.56
	2394	119.75	1.04022E+000	1.84783E-002	0.00000E+000	1.04115E+000	-2.67189E-003	10	...........	0	-327.56
	2400	120.05	1.03423E+000	1.80674E-002	0.00000E+000	1.03515E+000	-2.66889E-003	10	...........	0	-327.56
	2406	120.35	1.02823E+000	1.76692E-002	0.00000E+000	1.02915E+000	-2.68289E-003	10	...........	0	-327.56
	2412	120.65	1.02221E+000	1.73544E-002	0.00000E+000	1.02315E+000	-2.67489E-003	10	...........	0	-327.56
	2418	120.95	1.01623E+000	1.77823E-002	0.00000E+000	1.01715E+000	-2.66922E-003	10	...........	0	-327.56
	2424	121.25	1.01027E+000	1.72904E-002	0.00000E+000	1.01115E+000	-2.67422E-003	10	...........	0	-327.56
	2430	121.55	1.00426E+000	1.72807E-002	0.00000E+000	1.00515E+000	-2.67855E-003	10	...........	0	-327.56
	2436	121.85	9.98231E-001	1.71825E-002	0.00000E+000	9.99150E-001	-2.67755E-003	10	...........	0	-327.56
	2442	122.15	9.92243E-001	1.70859E-002	0.00000E+000	9.93150E-001	-2.67189E-003	10	...........	0	-327.56
	2448	122.45	9.86204E-001	1.71080E-002	0.00000E+000	9.87150E-001	-2.67289E-003	10	...........	0	-327.56
	2454	122.75	9.80287E-001	1.72148E-002	0.00000E+000	9.81150E-001	-2.67689E-003	10	...........	0	-327.56
	2460	123.05	9.74270E-001	1.72981E-002	0.00000E+000	9.75150E-001	-2.67422E-003	10	...........	0	-327.56
	2466	123.35	9.68259E-001	1.77541E-002	0.00000E+000	9.69150E-001	-2.67955E-003	10	...........	0	-327.56
	2472	123.65	9.62238E-001	1.72297E-002	0.00000E+000	9.63150E-001	-2.67689E-003	10	...........	0	-327.56
	2478	123.95	9.56294E-001	1.75432E-002	0.00000E+000	9.57150E-001	-2.68222E-003	10	...........	0	-327.56
	2484	124.25	9.50280E-001	1.76953E-002	0.00000E+000	9.51150E-001	-2.68422E-003	10	...........	0	-327.56
	2490	124.55	9.44254E-001	1.85285E-002	0.00000E+000	9.45150E-001	-2.66755E-003	10	...........	0	-327.56
	2496	124.85	9.38241E-001	1.86852E-002	0.00000E+000	9.39150E-001	-2.67789E-003	10	...........	0	-327.56
	2502	125.15	9.32290E-001	1.91886E-002	0.00000E+000	9.33150E-001	-2.67755E-003	10	...........	0	-327.56
	2508	125.45	9.26306E-001	1.82137E-002	0.00000E+000	9.27150E-001	-2.67755E-003	10	...........	0	-327.56
	2514	125.75	9.20317E-001	1.78435E-002	0.00000E+000	9.21150E-001	-2.67089E-003	10	...........	0	-327.56
	2520	126.05	9.14314E-001	1.76951E-002	0.00000E+000	9.15150E-001	-2.67089E-003	10	...........	0	-327.56
	2526	126.35	9.08345E-001	1.99913E-002	0.00000E+000	9.09150E-001	-2.67489E-003	10	...........	0	-327.56
	2532	126.65	9.02381E-001	1.79946E-002	0.00000E+000	9.03150E-001	-2.67655E-003	10	...........	0	-327.56
	2538	126.95	8.96335E-001	1.79713E-002	0.00000E+000	8.97150E-001	-2.67055E-003	10	...........	0	-327.56
	2544	127.25	8.90324E-001	1.81478E-002	0.00000E+000	8.91150E-001	-2.67655E-003	10	...........	0	-327.56
	2550	127.55	8.84169E-001	2.73763E-002	0.00000E+000	8.85150E-001	-2.69122E-003	10	...........	0	-327.56
	2556	127.85	8.78833E-001	1.88044E-002	0.00000E+000	8.79150E-001	-2.67622E-003	11	...........	0	-327.56
	2562	128.15	8.72339E-001	1.84685E-002	0.00000E+000	8.73150E-001	-2.67289E-003	10	...........	0	-327.56
	2568	128.45	8.66341E-001	1.85480E-002	0.00000E+000	8.67150E-001	-2.67322E-003	10	...........	0	-327.56
	2574	128.75	8.60306E-001	1.88857E-002	0.00000E+000	8.61150E-001	-2.68122E-003	10	...........	0	-327.56
	2577	128.9	8.57401E-001	1.89143E-002	0.00000E+000	8.58150E-001	-2.68089E-003	10	...........	0	-327.56