File: testing/data/240902_18_MCL13_cswWE_CV50_750C_CO2.DTA
EXPLAIN
TAG	CV
TITLE	LABEL	Cyclic Voltammetry	Test Identifier
DATE	LABEL	9/3/2024	Date
TIME	LABEL	17:42:40	Time
NOTES	NOTES	5	Notes...
	cswWE - carbon steel wire
cspWE - carbon steel plate 2x2 tapered

Carbon steel plate counter electrode
Carbon steel wire reference electrode
PSTAT	PSTAT	REF3000-48128	Potentiostat
VINIT	POTEN	0.00000E+000	T	Initial E (V)
VLIMIT1	POTEN	1.70000E+000	F	Scan Limit 1 (V)
VLIMIT2	POTEN	-1.00000E+000	F	Scan Limit 2 (V)
VFINAL	POTEN	1.70000E+000	F	Final E (V)
SCANRATE	QUANT	4.99999E+001	Scan Rate (mV/s)
STEPSIZE	QUANT	1.00000E+000	Step Size (mV)
CYCLES	IQUANT	6	Cycles (#)
IMODE	SELECTOR	0	I/E Range Mode
IRANGE	QUANT	3.00000E-001	Max Current (mA)
AREA	QUANT	1.00000E+000	Sample Area (cm^2)
EQDELAY	QUANT	0.00000E+000	Equil. Time (s)
IRCOMP	SELECTOR	0	IRComp
PFCOR	QUANT	5.00000E+001	PF Corr. (ohm)
SAMPLINGMODE	SELECTOR	1	Sampling Mode
EOC	QUANT	0.1485671	Open Circuit (V)
ELECTRODETYPE	SELECTOR	0	Electrode Type
STRIPPING	TOGGLE	F	Used for Stripping
SEQUENCER	TOGGLE	TRUE	Run as Sequence
PSTATMODEL	IQUANT	5	Pstat Model
PSTATSECTION	LABEL	REF3000-48128	Pstat Section
PSTATSERIALNO	LABEL	48128	Pstat Serial Number
CTRLMODE	IQUANT	1	Control Mode
ELECTROMETER	IQUANT	0	RE=0 or CS=1
IESTAB	IQUANT	2	I/E Stability
CASPEED	IQUANT	4	Control Amp Speed
CONVENTION	IQUANT	1	Current Convention
ICHRANGE	IQUANT	2	Ich Range
ICHRANGEMODE	TOGGLE	F	Ich Auto Range
ICHOFFSETENABLE	TOGGLE	F	Ich Offset Enable
ICHOFFSET	QUANT	0	Ich Offset (V)
ICHFILTER	IQUANT	2	Ich Filter
VCHRANGE	IQUANT	2	Vch Range
VCHRANGEMODE	TOGGLE	F	Vch Auto Range
VCHOFFSETENABLE	TOGGLE	F	Vch Offset Enable
VCHOFFSET	QUANT	0	Vch Offset (V)
VCHFILTER	IQUANT	2	Vch Filter
ACHRANGE	IQUANT	2	Ach Range
ACHOFFSETENABLE	TOGGLE	F	Ach Offset Enable
ACHOFFSET	QUANT	0	Ach Offset (V)
ACHFILTER	IQUANT	1	Ach Filter
IERANGELOWERLIMIT	IQUANT	2	I/E Range Lower Limit
IERANGEMODE	TOGGLE	T	I/E AutoRange
IERANGE	IQUANT	9	I/E Range
POSFEEDENABLE	TOGGLE	F	Positive Feedback IR Comp
POSFEEDRESISTANCE	QUANT	0	Positive Feedback Resistance (ohm)
ACHSELECT	IQUANT	4	Ach Select
SENSECABLEID	IQUANT	14	Sense Cable ID
PWRCABLEID	IQUANT	7	Power Cable ID
DCCALDATE	LABEL	8/16/2024	DC Calibration Date
ACCALDATE	LABEL	8/16/2024	AC Calibration Date
THERMOSELECT	IQUANT	1	Thermo Select
FRAMEWORKVERSION	LABEL	7.10.3	Framework Version
INSTRUMENTVERSION	LABEL	4.91	Instrument Version
COMMVERSION	LABEL	5.10	Communications Version
CPUPLDVERSION	LABEL	6.00	CPU PLD Version
CTRLPLDVERSION	LABEL	3.21	CTRL PLD Version
PSTATPLDVERSION	LABEL	0.00	PSTAT PLD Version
COMPLIANCEVOLTAGE	IQUANT	0	Compliance Voltage
CURVE1	TABLE
	Pt	T	Vf	Im	Vu	Sig	Ach	IERange	Over	Temp
	#	s	V vs. Ref.	A	V	V	V	#	bits	deg C
	0	0.02	1.48254E-001	1.18777E-004	0.00000E+000	1.48550E-001	-9.62214E-005	9	...........	-327.56
	9	0.2	1.57214E-001	6.00829E-004	0.00000E+000	1.57550E-001	-9.03881E-005	9	...........	-327.56
	18	0.38	1.66167E-001	9.90845E-004	0.00000E+000	1.66550E-001	-1.02055E-004	9	...........	-327.56
	27	0.56	1.75063E-001	1.40238E-003	0.00000E+000	1.75550E-001	-1.09555E-004	9	...........	-327.56
	36	0.74	1.84056E-001	1.84559E-003	0.00000E+000	1.84550E-001	-9.62214E-005	9	...........	-327.56
	45	0.92	1.92890E-001	2.36207E-003	0.00000E+000	1.93550E-001	-9.62214E-005	9	...........	-327.56
	54	1.1	2.02198E-001	2.98181E-003	0.00000E+000	2.02550E-001	-8.95548E-005	10	...........	-327.56
	63	1.28	2.11215E-001	3.61774E-003	0.00000E+000	2.11550E-001	-1.04555E-004	10	...........	-327.56
	72	1.46	2.20128E-001	4.38486E-003	0.00000E+000	2.20550E-001	-9.95548E-005	10	...........	-327.56
	81	1.64	2.29145E-001	5.20113E-003	0.00000E+000	2.29550E-001	-1.02055E-004	10	...........	-327.56
	90	1.82	2.38186E-001	6.09715E-003	0.00000E+000	2.38550E-001	-1.08721E-004	10	...........	-327.56
	99	2	2.47072E-001	7.14475E-003	0.00000E+000	2.47550E-001	-1.05388E-004	10	...........	-327.56
	108	2.18	2.56100E-001	8.31014E-003	0.00000E+000	2.56550E-001	-1.04555E-004	10	...........	-327.56
	117	2.36	2.65085E-001	9.55022E-003	0.00000E+000	2.65550E-001	-1.05388E-004	10	...........	-327.56
	126	2.54	2.74017E-001	1.08808E-002	0.00000E+000	2.74550E-001	-8.95548E-005	10	...........	-327.56
	135	2.72	2.83067E-001	1.22760E-002	0.00000E+000	2.83550E-001	-1.01221E-004	10	...........	-327.56
	144	2.9	2.92040E-001	1.37168E-002	0.00000E+000	2.92550E-001	-1.18721E-004	10	...........	-327.56
	153	3.08	3.00981E-001	1.51661E-002	0.00000E+000	3.01550E-001	-1.00388E-004	10	...........	-327.56
	162	3.26	3.09922E-001	1.66058E-002	0.00000E+000	3.10550E-001	-9.12214E-005	10	...........	-327.56
	171	3.44	3.18922E-001	1.80403E-002	0.00000E+000	3.19550E-001	-8.70548E-005	10	...........	-327.56
	180	3.62	3.27894E-001	1.94566E-002	0.00000E+000	3.28550E-001	-1.16221E-004	10	...........	-327.56
	189	3.8	3.36861E-001	2.09725E-002	0.00000E+000	3.37550E-001	-9.20548E-005	10	...........	-327.56
	198	3.98	3.45770E-001	2.25088E-002	0.00000E+000	3.46550E-001	-9.28881E-005	10	...........	-327.56
	207	4.16	3.54770E-001	2.44217E-002	0.00000E+000	3.55550E-001	-9.87214E-005	10	...........	-327.56
	216	4.34	3.63767E-001	2.67168E-002	0.00000E+000	3.64550E-001	-1.03721E-004	10	...........	-327.56
	225	4.52	3.72986E-001	2.90428E-002	0.00000E+000	3.73550E-001	-1.03721E-004	11	...........	-327.56
	234	4.7	3.82015E-001	3.10444E-002	0.00000E+000	3.82550E-001	-1.12055E-004	11	...........	-327.56
	243	4.88	3.91046E-001	3.25246E-002	0.00000E+000	3.91550E-001	-9.70548E-005	11	...........	-327.56
	252	5.06	3.99950E-001	3.35465E-002	0.00000E+000	4.00550E-001	-9.03881E-005	11	...........	-327.56
	261	5.24	4.09013E-001	3.37748E-002	0.00000E+000	4.09550E-001	-1.11221E-004	11	...........	-327.56
	270	5.42	4.18048E-001	3.34851E-002	0.00000E+000	4.18550E-001	-9.45548E-005	11	...........	-327.56
	279	5.6	4.27021E-001	3.28805E-002	0.00000E+000	4.27550E-001	-9.03881E-005	11	...........	-327.56
	288	5.78	4.36001E-001	3.19787E-002	0.00000E+000	4.36550E-001	-9.78881E-005	11	...........	-327.56
	297	5.96	4.45045E-001	3.07441E-002	0.00000E+000	4.45550E-001	-1.02888E-004	11	...........	-327.56
	306	6.14	4.53951E-001	2.96389E-002	0.00000E+000	4.54550E-001	-9.20548E-005	11	...........	-327.56
	315	6.32	4.63009E-001	2.84894E-002	0.00000E+000	4.63550E-001	-1.11221E-004	11	...........	-327.56
	324	6.5	4.72024E-001	2.75248E-002	0.00000E+000	4.72550E-001	-1.04555E-004	11	...........	-327.56
	333	6.68	4.80971E-001	2.66167E-002	0.00000E+000	4.81550E-001	-9.95548E-005	11	...........	-327.56
	342	6.86	4.89999E-001	2.59054E-002	0.00000E+000	4.90550E-001	-9.78881E-005	11	...........	-327.56
	351	7.04	4.99007E-001	2.52016E-002	0.00000E+000	4.99550E-001	-9.20548E-005	11	...........	-327.56
	360	7.22	5.07948E-001	2.47142E-002	0.00000E+000	5.08550E-001	-9.78881E-005	11	...........	-327.56
	369	7.4	5.16699E-001	2.41404E-002	0.00000E+000	5.17550E-001	-8.95548E-005	10	...........	-327.56
	378	7.58	5.25588E-001	2.36461E-002	0.00000E+000	5.26550E-001	-8.53881E-005	10	...........	-327.56
	387	7.76	5.34645E-001	2.33354E-002	0.00000E+000	5.35550E-001	-1.00388E-004	10	...........	-327.56
	396	7.94	5.43692E-001	2.29567E-002	0.00000E+000	5.44550E-001	-7.12214E-005	10	...........	-327.56
	405	8.12	5.52597E-001	2.27188E-002	0.00000E+000	5.53550E-001	-9.37214E-005	10	...........	-327.56
	414	8.3	5.61642E-001	2.22913E-002	0.00000E+000	5.62550E-001	-9.45548E-005	10	...........	-327.56
	423	8.48	5.70682E-001	2.19426E-002	0.00000E+000	5.71550E-001	-9.78881E-005	10	...........	-327.56
	432	8.66	5.79615E-001	2.16951E-002	0.00000E+000	5.80550E-001	-8.62214E-005	10	...........	-327.56
	441	8.84	5.88669E-001	2.12584E-002	0.00000E+000	5.89550E-001	-9.37214E-005	10	...........	-327.56
	450	9.02	5.97680E-001	2.09697E-002	0.00000E+000	5.98550E-001	-9.28881E-005	10	...........	-327.56
	459	9.2	6.06616E-001	2.06127E-002	0.00000E+000	6.07550E-001	-9.45548E-005	10	...........	-327.56
	468	9.38	6.15645E-001	2.02731E-002	0.00000E+000	6.16550E-001	-9.70548E-005	10	...........	-327.56
	477	9.56	6.24663E-001	1.99029E-002	0.00000E+000	6.25550E-001	-1.07888E-004	10	...........	-327.56
	486	9.74	6.33617E-001	1.97406E-002	0.00000E+000	6.34550E-001	-1.00388E-004	10	...........	-327.56
	495	9.92	6.42637E-001	1.92652E-002	0.00000E+000	6.43550E-001	-9.03881E-005	10	...........	-327.56
	504	10.1	6.51661E-001	1.89679E-002	0.00000E+000	6.52550E-001	-1.13721E-004	10	...........	-327.56
	513	10.28	6.60680E-001	1.87227E-002	0.00000E+000	6.61550E-001	-1.03721E-004	10	...........	-327.56
	522	10.46	6.69632E-001	1.83814E-002	0.00000E+000	6.70550E-001	-1.00388E-004	10	...........	-327.56
	531	10.64	6.78583E-001	1.80474E-002	0.00000E+000	6.79550E-001	-1.01221E-004	10	...........	-327.56
	540	10.82	6.87581E-001	1.78007E-002	0.00000E+000	6.88550E-001	-8.95548E-005	10	...........	-327.56
	549	11	6.96668E-001	1.75646E-002	0.00000E+000	6.97550E-001	-9.53881E-005	10	...........	-327.56
	558	11.18	7.05552E-001	1.73234E-002	0.00000E+000	7.06550E-001	-9.12214E-005	10	...........	-327.56
	567	11.36	7.14611E-001	1.70334E-002	0.00000E+000	7.15550E-001	-8.78881E-005	10	...........	-327.56
	576	11.54	7.23589E-001	1.67987E-002	0.00000E+000	7.24550E-001	-9.70548E-005	10	...........	-327.56
	585	11.72	7.32554E-001	1.65500E-002	0.00000E+000	7.33550E-001	-1.08721E-004	10	...........	-327.56
	594	11.9	7.41553E-001	1.63026E-002	0.00000E+000	7.42550E-001	-7.03881E-005	10	...........	-327.56
	603	12.08	7.50603E-001	1.59351E-002	0.00000E+000	7.51550E-001	-9.95548E-005	10	...........	-327.56
	612	12.26	7.59510E-001	1.55579E-002	0.00000E+000	7.60550E-001	-9.37214E-005	10	...........	-327.56
	621	12.44	7.68545E-001	1.53681E-002	0.00000E+000	7.69550E-001	-1.04555E-004	10	...........	-327.56
	630	12.62	7.77570E-001	1.50331E-002	0.00000E+000	7.78550E-001	-1.13721E-004	10	...........	-327.56
	639	12.8	7.86521E-001	1.45908E-002	0.00000E+000	7.87550E-001	-8.70548E-005	10	...........	-327.56
	648	12.98	7.95572E-001	1.41885E-002	0.00000E+000	7.96550E-001	-1.07888E-004	10	...........	-327.56
	657	13.16	8.04587E-001	1.38245E-002	0.00000E+000	8.05550E-001	-1.05388E-004	10	...........	-327.56
	666	13.34	8.13529E-001	1.33191E-002	0.00000E+000	8.14550E-001	-9.95548E-005	10	...........	-327.56
	675	13.52	8.22543E-001	1.27777E-002	0.00000E+000	8.23550E-001	-1.10388E-004	10	...........	-327.56
	684	13.7	8.31532E-001	1.23126E-002	0.00000E+000	8.32550E-001	-9.45548E-005	10	...........	-327.56
	693	13.88	8.40505E-001	1.18386E-002	0.00000E+000	8.41550E-001	-1.10388E-004	10	...........	-327.56
	702	14.06	8.49553E-001	1.13372E-002	0.00000E+000	8.50550E-001	-8.87214E-005	10	...........	-327.56
	711	14.24	8.58429E-001	1.09321E-002	0.00000E+000	8.59550E-001	-1.02888E-004	10	...........	-327.56
	720	14.42	8.67512E-001	1.05164E-002	0.00000E+000	8.68550E-001	-9.03881E-005	10	...........	-327.56
	729	14.6	8.76547E-001	1.03088E-002	0.00000E+000	8.77550E-001	-9.37214E-005	10	...........	-327.56
	738	14.78	8.85435E-001	9.94784E-003	0.00000E+000	8.86550E-001	-1.01221E-004	10	...........	-327.56
	747	14.96	8.94499E-001	9.79183E-003	0.00000E+000	8.95550E-001	-9.37214E-005	10	...........	-327.56
	756	15.14	9.03530E-001	9.57731E-003	0.00000E+000	9.04550E-001	-1.06221E-004	10	...........	-327.56
	765	15.32	9.12464E-001	9.47781E-003	0.00000E+000	9.13550E-001	-9.95548E-005	10	...........	-327.56
	774	15.5	9.21516E-001	9.31422E-003	0.00000E+000	9.22550E-001	-1.02888E-004	10	...........	-327.56
	783	15.68	9.30484E-001	9.25059E-003	0.00000E+000	9.31550E-001	-9.20548E-005	10	...........	-327.56
	792	15.86	9.39425E-001	9.20628E-003	0.00000E+000	9.40550E-001	-1.02888E-004	10	...........	-327.56
	801	16.04	9.48442E-001	9.22960E-003	0.00000E+000	9.49550E-001	-9.37214E-005	10	...........	-327.56
	810	16.22	9.57482E-001	9.23285E-003	0.00000E+000	9.58550E-001	-1.01221E-004	10	...........	-327.56
	819	16.4	9.66404E-001	9.21533E-003	0.00000E+000	9.67550E-001	-9.53881E-005	10	...........	-327.56
	828	16.58	9.75447E-001	9.29880E-003	0.00000E+000	9.76550E-001	-9.53881E-005	10	...........	-327.56
	837	16.76	9.84457E-001	9.41136E-003	0.00000E+000	9.85550E-001	-1.05388E-004	10	...........	-327.56
	846	16.94	9.93448E-001	9.60461E-003	0.00000E+000	9.94550E-001	-9.62214E-005	10	...........	-327.56
	855	17.12	1.00241E+000	9.65157E-003	0.00000E+000	1.00355E+000	-9.70548E-005	10	...........	-327.56
	864	17.3	1.01136E+000	9.88187E-003	0.00000E+000	1.01255E+000	-8.87214E-005	10	...........	-327.56
	873	17.48	1.02036E+000	1.00794E-002	0.00000E+000	1.02155E+000	-1.03721E-004	10	...........	-327.56
	882	17.66	1.02940E+000	1.03422E-002	0.00000E+000	1.03055E+000	-9.12214E-005	10	...........	-327.56
	891	17.84	1.03833E+000	1.06323E-002	0.00000E+000	1.03955E+000	-1.10388E-004	10	...........	-327.56
	900	18.02	1.04734E+000	1.11070E-002	0.00000E+000	1.04855E+000	-1.02055E-004	10	...........	-327.56
	909	18.2	1.05636E+000	1.17608E-002	0.00000E+000	1.05755E+000	-8.53881E-005	10	...........	-327.56
	918	18.38	1.06529E+000	1.22798E-002	0.00000E+000	1.06655E+000	-9.20548E-005	10	...........	-327.56
	927	18.56	1.07430E+000	1.29453E-002	0.00000E+000	1.07555E+000	-8.95548E-005	10	...........	-327.56
	936	18.74	1.08330E+000	1.37426E-002	0.00000E+000	1.08455E+000	-1.04555E-004	10	...........	-327.56
	945	18.92	1.09223E+000	1.47726E-002	0.00000E+000	1.09355E+000	-1.03721E-004	10	...........	-327.56
	954	19.1	1.10124E+000	1.57674E-002	0.00000E+000	1.10255E+000	-8.03881E-005	10	...........	-327.56
	963	19.28	1.11028E+000	1.70788E-002	0.00000E+000	1.11155E+000	-1.01221E-004	10	...........	-327.56
	972	19.46	1.11918E+000	1.85054E-002	0.00000E+000	1.12055E+000	-1.04555E-004	10	...........	-327.56
	981	19.64	1.12815E+000	2.00981E-002	0.00000E+000	1.12955E+000	-1.11221E-004	10	...........	-327.56
	990	19.82	1.13712E+000	2.18513E-002	0.00000E+000	1.13855E+000	-9.12214E-005	10	...........	-327.56
	999	20	1.14604E+000	2.39145E-002	0.00000E+000	1.14755E+000	-1.13721E-004	10	...........	-327.56
	1008	20.18	1.15509E+000	2.63563E-002	0.00000E+000	1.15655E+000	-1.02055E-004	10	...........	-327.56
	1017	20.36	1.16434E+000	2.89906E-002	0.00000E+000	1.16555E+000	-1.09555E-004	11	...........	-327.56
	1026	20.54	1.17329E+000	3.19928E-002	0.00000E+000	1.17455E+000	-9.03881E-005	11	...........	-327.56
	1035	20.72	1.18233E+000	3.51039E-002	0.00000E+000	1.18355E+000	-1.08721E-004	11	...........	-327.56
	1044	20.9	1.19118E+000	3.82354E-002	0.00000E+000	1.19255E+000	-1.20388E-004	11	...........	-327.56
	1053	21.08	1.20026E+000	4.19357E-002	0.00000E+000	1.20155E+000	-1.06221E-004	11	...........	-327.56
	1062	21.26	1.20931E+000	4.55207E-002	0.00000E+000	1.21055E+000	-1.00388E-004	11	...........	-327.56
	1071	21.44	1.21820E+000	4.99104E-002	0.00000E+000	1.21955E+000	-1.07888E-004	11	...........	-327.56
	1080	21.62	1.22722E+000	5.36334E-002	0.00000E+000	1.22855E+000	-1.34555E-004	11	...........	-327.56
	1089	21.8	1.23625E+000	5.86983E-002	0.00000E+000	1.23755E+000	-9.20548E-005	11	...........	-327.56
	1098	21.98	1.24517E+000	6.27432E-002	0.00000E+000	1.24655E+000	-1.23721E-004	11	...........	-327.56
	1107	22.16	1.25422E+000	6.76632E-002	0.00000E+000	1.25555E+000	-1.13721E-004	11	...........	-327.56
	1116	22.34	1.26321E+000	7.26672E-002	0.00000E+000	1.26455E+000	-1.26221E-004	11	...........	-327.56
	1125	22.52	1.27216E+000	7.80635E-002	0.00000E+000	1.27355E+000	-9.87214E-005	11	...........	-327.56
	1134	22.7	1.28117E+000	8.30685E-002	0.00000E+000	1.28255E+000	-1.10388E-004	11	...........	-327.56
	1143	22.88	1.29020E+000	8.86097E-002	0.00000E+000	1.29155E+000	-1.15388E-004	11	...........	-327.56
	1152	23.06	1.29913E+000	9.31623E-002	0.00000E+000	1.30055E+000	-9.37214E-005	11	...........	-327.56
	1161	23.24	1.30814E+000	9.92270E-002	0.00000E+000	1.30955E+000	-1.18721E-004	11	...........	-327.56
	1170	23.42	1.31715E+000	1.05150E-001	0.00000E+000	1.31855E+000	-1.10388E-004	11	...........	-327.56
	1179	23.6	1.32609E+000	1.11175E-001	0.00000E+000	1.32755E+000	-1.16221E-004	11	...........	-327.56
	1188	23.78	1.33505E+000	1.16865E-001	0.00000E+000	1.33655E+000	-9.70548E-005	11	...........	-327.56
	1197	23.96	1.34401E+000	1.23445E-001	0.00000E+000	1.34555E+000	-1.31221E-004	11	...........	-327.56
	1206	24.14	1.35299E+000	1.29816E-001	0.00000E+000	1.35455E+000	-1.14555E-004	11	...........	-327.56
	1215	24.32	1.36204E+000	1.36461E-001	0.00000E+000	1.36355E+000	-1.07888E-004	11	...........	-327.56
	1224	24.5	1.37098E+000	1.42588E-001	0.00000E+000	1.37255E+000	-1.18721E-004	11	...........	-327.56
	1233	24.68	1.37995E+000	1.49332E-001	0.00000E+000	1.38155E+000	-1.27888E-004	11	...........	-327.56
	1242	24.86	1.38896E+000	1.56417E-001	0.00000E+000	1.39055E+000	-1.12888E-004	11	...........	-327.56
	1251	25.04	1.39785E+000	1.62708E-001	0.00000E+000	1.39955E+000	-1.02055E-004	11	...........	-327.56
	1260	25.22	1.40688E+000	1.69508E-001	0.00000E+000	1.40855E+000	-1.06221E-004	11	...........	-327.56
	1269	25.4	1.41594E+000	1.76514E-001	0.00000E+000	1.41755E+000	-1.07055E-004	11	...........	-327.56
	1278	25.58	1.42481E+000	1.84989E-001	0.00000E+000	1.42655E+000	-1.07888E-004	11	...........	-327.56
	1287	25.76	1.43383E+000	1.92166E-001	0.00000E+000	1.43555E+000	-1.17055E-004	11	...........	-327.56
	1296	25.94	1.44282E+000	1.98772E-001	0.00000E+000	1.44455E+000	-9.95548E-005	11	...........	-327.56
	1305	26.12	1.45176E+000	2.05631E-001	0.00000E+000	1.45355E+000	-1.07055E-004	11	...........	-327.56
	1314	26.3	1.46079E+000	2.15012E-001	0.00000E+000	1.46255E+000	-1.18721E-004	11	...........	-327.56
	1323	26.48	1.46979E+000	2.23036E-001	0.00000E+000	1.47155E+000	-1.22888E-004	11	...........	-327.56
	1332	26.66	1.47868E+000	2.29443E-001	0.00000E+000	1.48055E+000	-1.21221E-004	11	...........	-327.56
	1341	26.84	1.48773E+000	2.37334E-001	0.00000E+000	1.48955E+000	-1.09555E-004	11	...........	-327.56
	1350	27.02	1.49672E+000	2.45779E-001	0.00000E+000	1.49855E+000	-1.02055E-004	11	...........	-327.56
	1359	27.2	1.50566E+000	2.55708E-001	0.00000E+000	1.50755E+000	-1.16221E-004	11	...........	-327.56
	1368	27.38	1.51469E+000	2.60274E-001	0.00000E+000	1.51655E+000	-1.09555E-004	11	...........	-327.56
	1377	27.56	1.52386E+000	2.71312E-001	0.00000E+000	1.52555E+000	-1.22888E-004	12	...........	-327.56
	1386	27.74	1.53292E+000	2.77658E-001	0.00000E+000	1.53455E+000	-1.06221E-004	12	...........	-327.56
	1395	27.92	1.54190E+000	2.85846E-001	0.00000E+000	1.54355E+000	-1.34555E-004	12	...........	-327.56
	1404	28.1	1.55080E+000	2.93481E-001	0.00000E+000	1.55255E+000	-1.09555E-004	12	...........	-327.56
	1413	28.28	1.55988E+000	3.01720E-001	0.00000E+000	1.56155E+000	-1.22055E-004	12	...........	-327.56
	1422	28.46	1.56884E+000	3.11175E-001	0.00000E+000	1.57055E+000	-1.21221E-004	12	...........	-327.56
	1431	28.64	1.57779E+000	3.22831E-001	0.00000E+000	1.57955E+000	-1.17888E-004	12	...........	-327.56
	1440	28.82	1.58679E+000	3.27220E-001	0.00000E+000	1.58855E+000	-1.11221E-004	12	...........	-327.56
	1449	29	1.59582E+000	3.34202E-001	0.00000E+000	1.59755E+000	-1.17888E-004	12	...........	-327.56
	1458	29.18	1.60475E+000	3.42079E-001	0.00000E+000	1.60655E+000	-9.70548E-005	12	...........	-327.56
	1467	29.36	1.61377E+000	3.54156E-001	0.00000E+000	1.61555E+000	-1.23721E-004	12	...........	-327.56
	1476	29.54	1.62280E+000	3.58901E-001	0.00000E+000	1.62455E+000	-1.09555E-004	12	...........	-327.56
	1485	29.72	1.63176E+000	3.70874E-001	0.00000E+000	1.63355E+000	-1.12888E-004	12	...........	-327.56
	1494	29.9	1.64071E+000	3.74981E-001	0.00000E+000	1.64255E+000	-1.12888E-004	12	...........	-327.56
	1503	30.08	1.64976E+000	3.84867E-001	0.00000E+000	1.65155E+000	-1.32888E-004	12	...........	-327.56
	1512	30.26	1.65867E+000	3.93165E-001	0.00000E+000	1.66055E+000	-1.12055E-004	12	...........	-327.56
	1521	30.44	1.66773E+000	4.06300E-001	0.00000E+000	1.66955E+000	-1.08721E-004	12	...........	-327.56
	1530	30.62	1.67671E+000	4.07878E-001	0.00000E+000	1.67855E+000	-1.14555E-004	12	...........	-327.56
	1539	30.8	1.68565E+000	4.22774E-001	0.00000E+000	1.68755E+000	-1.10388E-004	12	...........	-327.56
	1548	30.98	1.69470E+000	4.26951E-001	0.00000E+000	1.69655E+000	-1.15388E-004	12	...........	-327.56
	1557	31.16	1.69172E+000	4.23675E-001	0.00000E+000	1.69355E+000	-1.15388E-004	12	...........	-327.56
	1566	31.34	1.68265E+000	4.12455E-001	0.00000E+000	1.68455E+000	-1.18721E-004	12	...........	-327.56
	1575	31.52	1.67374E+000	4.07201E-001	0.00000E+000	1.67555E+000	-1.28721E-004	12	...........	-327.56
	1584	31.7	1.66468E+000	4.05413E-001	0.00000E+000	1.66655E+000	-1.17888E-004	12	...........	-327.56
	1593	31.88	1.65563E+000	4.36580E-001	0.00000E+000	1.65755E+000	-1.10388E-004	12	...........	-327.56
	1602	32.06	1.64676E+000	3.78496E-001	0.00000E+000	1.64855E+000	-1.17055E-004	12	...........	-327.56
	1611	32.24	1.63778E+000	3.68314E-001	0.00000E+000	1.63955E+000	-1.16221E-004	12	...........	-327.56
	1620	32.42	1.62874E+000	3.66160E-001	0.00000E+000	1.63055E+000	-1.32888E-004	12	...........	-327.56
	1629	32.6	1.61982E+000	3.59030E-001	0.00000E+000	1.62155E+000	-1.03721E-004	12	...........	-327.56
	1638	32.78	1.61074E+000	3.48934E-001	0.00000E+000	1.61255E+000	-1.10388E-004	12	...........	-327.56
	1647	32.96	1.60174E+000	3.43036E-001	0.00000E+000	1.60355E+000	-1.17055E-004	12	...........	-327.56
	1656	33.14	1.59281E+000	3.37862E-001	0.00000E+000	1.59455E+000	-1.11221E-004	12	...........	-327.56
	1665	33.32	1.58386E+000	3.27052E-001	0.00000E+000	1.58555E+000	-1.19555E-004	12	...........	-327.56
	1674	33.5	1.57476E+000	3.17936E-001	0.00000E+000	1.57655E+000	-1.16221E-004	12	...........	-327.56
	1683	33.68	1.56587E+000	3.06488E-001	0.00000E+000	1.56755E+000	-9.53881E-005	12	...........	-327.56
	1692	33.86	1.55683E+000	2.99956E-001	0.00000E+000	1.55855E+000	-1.09555E-004	12	...........	-327.56
	1701	34.04	1.54788E+000	2.90789E-001	0.00000E+000	1.54955E+000	-1.22888E-004	12	...........	-327.56
	1710	34.22	1.53890E+000	2.86168E-001	0.00000E+000	1.54055E+000	-1.05388E-004	12	...........	-327.56
	1719	34.4	1.52992E+000	2.77750E-001	0.00000E+000	1.53155E+000	-1.15388E-004	12	...........	-327.56
	1728	34.58	1.52096E+000	2.69241E-001	0.00000E+000	1.52255E+000	-1.14555E-004	12	...........	-327.56
	1737	34.76	1.51197E+000	2.60027E-001	0.00000E+000	1.51355E+000	-1.21221E-004	12	...........	-327.56
	1746	34.94	1.50291E+000	2.53785E-001	0.00000E+000	1.50455E+000	-9.95548E-005	12	...........	-327.56
	1755	35.12	1.49398E+000	2.47323E-001	0.00000E+000	1.49555E+000	-1.13721E-004	12	...........	-327.56
	1764	35.3	1.48472E+000	2.37376E-001	0.00000E+000	1.48655E+000	-1.10388E-004	11	...........	-327.56
	1773	35.48	1.47571E+000	2.32356E-001	0.00000E+000	1.47755E+000	-1.07888E-004	11	...........	-327.56
	1782	35.66	1.46678E+000	2.23753E-001	0.00000E+000	1.46855E+000	-1.09555E-004	11	...........	-327.56
	1791	35.84	1.45776E+000	2.17079E-001	0.00000E+000	1.45955E+000	-1.06221E-004	11	...........	-327.56
	1800	36.02	1.44874E+000	2.10044E-001	0.00000E+000	1.45055E+000	-1.18721E-004	11	...........	-327.56
	1809	36.2	1.43984E+000	2.03219E-001	0.00000E+000	1.44155E+000	-1.09555E-004	11	...........	-327.56
	1818	36.38	1.43085E+000	1.95890E-001	0.00000E+000	1.43255E+000	-1.09555E-004	11	...........	-327.56
	1827	36.56	1.42179E+000	1.89425E-001	0.00000E+000	1.42355E+000	-1.13721E-004	11	...........	-327.56
	1836	36.74	1.41290E+000	1.81858E-001	0.00000E+000	1.41455E+000	-1.19555E-004	11	...........	-327.56
	1845	36.92	1.40386E+000	1.74330E-001	0.00000E+000	1.40555E+000	-1.06221E-004	11	...........	-327.56
	1854	37.1	1.39493E+000	1.68460E-001	0.00000E+000	1.39655E+000	-1.11221E-004	11	...........	-327.56
	1863	37.28	1.38594E+000	1.62136E-001	0.00000E+000	1.38755E+000	-1.07888E-004	11	...........	-327.56
	1872	37.46	1.37693E+000	1.55422E-001	0.00000E+000	1.37855E+000	-1.06221E-004	11	...........	-327.56
	1881	37.64	1.36799E+000	1.48721E-001	0.00000E+000	1.36955E+000	-1.13721E-004	11	...........	-327.56
	1890	37.82	1.35898E+000	1.42105E-001	0.00000E+000	1.36055E+000	-1.02055E-004	11	...........	-327.56
	1899	38	1.34996E+000	1.35891E-001	0.00000E+000	1.35155E+000	-9.95548E-005	11	...........	-327.56
	1908	38.18	1.34106E+000	1.29810E-001	0.00000E+000	1.34255E+000	-1.28721E-004	11	...........	-327.56
	1917	38.36	1.33203E+000	1.23264E-001	0.00000E+000	1.33355E+000	-1.07055E-004	11	...........	-327.56
	1926	38.54	1.32311E+000	1.17273E-001	0.00000E+000	1.32455E+000	-1.13721E-004	11	...........	-327.56
	1935	38.72	1.31413E+000	1.11757E-001	0.00000E+000	1.31555E+000	-1.11221E-004	11	...........	-327.56
	1944	38.9	1.30508E+000	1.05885E-001	0.00000E+000	1.30655E+000	-1.16221E-004	11	...........	-327.56
	1953	39.08	1.29608E+000	9.99954E-002	0.00000E+000	1.29755E+000	-1.08721E-004	11	...........	-327.56
	1962	39.26	1.28714E+000	9.44179E-002	0.00000E+000	1.28855E+000	-1.03721E-004	11	...........	-327.56
	1971	39.44	1.27816E+000	8.93790E-002	0.00000E+000	1.27955E+000	-1.20388E-004	11	...........	-327.56
	1980	39.62	1.26909E+000	8.40954E-002	0.00000E+000	1.27055E+000	-1.06221E-004	11	...........	-327.56
	1989	39.8	1.26022E+000	7.88462E-002	0.00000E+000	1.26155E+000	-1.23721E-004	11	...........	-327.56
	1998	39.98	1.25118E+000	7.44346E-002	0.00000E+000	1.25255E+000	-1.25388E-004	11	...........	-327.56
	2007	40.16	1.24217E+000	6.95058E-002	0.00000E+000	1.24355E+000	-1.14555E-004	11	...........	-327.56
	2016	40.34	1.23323E+000	6.47949E-002	0.00000E+000	1.23455E+000	-1.11221E-004	11	...........	-327.56
	2025	40.52	1.22421E+000	6.05289E-002	0.00000E+000	1.22555E+000	-1.23721E-004	11	...........	-327.56
	2034	40.7	1.21526E+000	5.63672E-002	0.00000E+000	1.21655E+000	-1.03721E-004	11	...........	-327.56
	2043	40.88	1.20630E+000	5.24814E-002	0.00000E+000	1.20755E+000	-1.39555E-004	11	...........	-327.56
	2052	41.06	1.19722E+000	4.90535E-002	0.00000E+000	1.19855E+000	-1.19555E-004	11	...........	-327.56
	2061	41.24	1.18828E+000	4.51312E-002	0.00000E+000	1.18955E+000	-1.13721E-004	11	...........	-327.56
	2070	41.42	1.17930E+000	4.19459E-002	0.00000E+000	1.18055E+000	-1.13721E-004	11	...........	-327.56
	2079	41.6	1.17027E+000	3.89816E-002	0.00000E+000	1.17155E+000	-1.13721E-004	11	...........	-327.56
	2088	41.78	1.16135E+000	3.62881E-002	0.00000E+000	1.16255E+000	-1.15388E-004	11	...........	-327.56
	2097	41.96	1.15232E+000	3.38699E-002	0.00000E+000	1.15355E+000	-1.11221E-004	11	...........	-327.56
	2106	42.14	1.14330E+000	3.15681E-002	0.00000E+000	1.14455E+000	-1.06221E-004	11	...........	-327.56
	2115	42.32	1.13437E+000	2.94568E-002	0.00000E+000	1.13555E+000	-1.21221E-004	11	...........	-327.56
	2124	42.5	1.12539E+000	2.76070E-002	0.00000E+000	1.12655E+000	-1.13721E-004	11	...........	-327.56
	2133	42.68	1.11636E+000	2.60319E-002	0.00000E+000	1.11755E+000	-1.21221E-004	11	...........	-327.56
	2142	42.86	1.10744E+000	2.46031E-002	0.00000E+000	1.10855E+000	-1.05388E-004	11	...........	-327.56
	2151	43.04	1.09814E+000	2.33127E-002	0.00000E+000	1.09955E+000	-1.08721E-004	10	...........	-327.56
	2160	43.22	1.08911E+000	2.23274E-002	0.00000E+000	1.09055E+000	-1.19555E-004	10	...........	-327.56
	2169	43.4	1.08021E+000	2.13940E-002	0.00000E+000	1.08155E+000	-9.87214E-005	10	...........	-327.56
	2178	43.58	1.07118E+000	2.06390E-002	0.00000E+000	1.07255E+000	-1.00388E-004	10	...........	-327.56
	2187	43.76	1.06226E+000	1.98783E-002	0.00000E+000	1.06355E+000	-1.02888E-004	10	...........	-327.56
	2196	43.94	1.05325E+000	1.93147E-002	0.00000E+000	1.05455E+000	-1.12055E-004	10	...........	-327.56
	2205	44.12	1.04422E+000	1.87630E-002	0.00000E+000	1.04555E+000	-1.01221E-004	10	...........	-327.56
	2214	44.3	1.03529E+000	1.82787E-002	0.00000E+000	1.03655E+000	-1.16221E-004	10	...........	-327.56
	2223	44.48	1.02628E+000	1.79172E-002	0.00000E+000	1.02755E+000	-1.03721E-004	10	...........	-327.56
	2232	44.66	1.01727E+000	1.74965E-002	0.00000E+000	1.01855E+000	-1.08721E-004	10	...........	-327.56
	2241	44.84	1.00835E+000	1.70935E-002	0.00000E+000	1.00955E+000	-1.12055E-004	10	...........	-327.56
	2250	45.02	9.99325E-001	1.66507E-002	0.00000E+000	1.00055E+000	-1.01221E-004	10	...........	-327.56
	2259	45.2	9.90326E-001	1.62064E-002	0.00000E+000	9.91550E-001	-1.31221E-004	10	...........	-327.56
	2268	45.38	9.81362E-001	1.56205E-002	0.00000E+000	9.82550E-001	-1.10388E-004	10	...........	-327.56
	2277	45.56	9.72337E-001	1.50470E-002	0.00000E+000	9.73550E-001	-1.21221E-004	10	...........	-327.56
	2286	45.74	9.63332E-001	1.45741E-002	0.00000E+000	9.64550E-001	-1.02055E-004	10	...........	-327.56
	2295	45.92	9.54405E-001	1.40061E-002	0.00000E+000	9.55550E-001	-1.07888E-004	10	...........	-327.56
	2304	46.1	9.45388E-001	1.34607E-002	0.00000E+000	9.46550E-001	-1.19555E-004	10	...........	-327.56
	2313	46.28	9.36340E-001	1.29316E-002	0.00000E+000	9.37550E-001	-1.05388E-004	10	...........	-327.56
	2322	46.46	9.27430E-001	1.25109E-002	0.00000E+000	9.28550E-001	-1.04555E-004	10	...........	-327.56
	2331	46.64	9.18463E-001	1.20724E-002	0.00000E+000	9.19550E-001	-1.13721E-004	10	...........	-327.56
	2340	46.82	9.09413E-001	1.16732E-002	0.00000E+000	9.10550E-001	-1.07055E-004	10	...........	-327.56
	2349	47	9.00509E-001	1.11777E-002	0.00000E+000	9.01550E-001	-1.12055E-004	10	...........	-327.56
	2358	47.18	8.91489E-001	1.05180E-002	0.00000E+000	8.92550E-001	-1.15388E-004	10	...........	-327.56
	2367	47.36	8.82543E-001	9.96562E-003	0.00000E+000	8.83550E-001	-1.07055E-004	10	...........	-327.56
	2376	47.54	8.73554E-001	9.40546E-003	0.00000E+000	8.74550E-001	-1.08721E-004	10	...........	-327.56
	2385	47.72	8.64516E-001	8.89655E-003	0.00000E+000	8.65550E-001	-9.87214E-005	10	...........	-327.56
	2394	47.9	8.55583E-001	8.44552E-003	0.00000E+000	8.56550E-001	-1.17888E-004	10	...........	-327.56
	2403	48.08	8.46577E-001	7.96778E-003	0.00000E+000	8.47550E-001	-1.11221E-004	10	...........	-327.56
	2412	48.26	8.37537E-001	7.53795E-003	0.00000E+000	8.38550E-001	-1.17888E-004	10	...........	-327.56
	2421	48.44	8.28640E-001	7.19071E-003	0.00000E+000	8.29550E-001	-1.01221E-004	10	...........	-327.56
	2430	48.62	8.19591E-001	6.83211E-003	0.00000E+000	8.20550E-001	-1.11221E-004	10	...........	-327.56
	2439	48.8	8.10614E-001	6.57114E-003	0.00000E+000	8.11550E-001	-1.12055E-004	10	...........	-327.56
	2448	48.98	8.01689E-001	6.29298E-003	0.00000E+000	8.02550E-001	-1.34555E-004	10	...........	-327.56
	2457	49.16	7.92646E-001	6.05728E-003	0.00000E+000	7.93550E-001	-1.22888E-004	10	...........	-327.56
	2466	49.34	7.83611E-001	5.82170E-003	0.00000E+000	7.84550E-001	-1.12055E-004	10	...........	-327.56
	2475	49.52	7.74698E-001	5.61514E-003	0.00000E+000	7.75550E-001	-1.08721E-004	10	...........	-327.56
	2484	49.7	7.65665E-001	5.43509E-003	0.00000E+000	7.66550E-001	-1.02888E-004	10	...........	-327.56
	2493	49.88	7.56709E-001	5.21184E-003	0.00000E+000	7.57550E-001	-1.17055E-004	10	...........	-327.56
	2502	50.06	7.47742E-001	5.04957E-003	0.00000E+000	7.48550E-001	-1.19555E-004	10	...........	-327.56
	2511	50.24	7.38685E-001	4.86800E-003	0.00000E+000	7.39550E-001	-1.00388E-004	10	...........	-327.56
	2520	50.42	7.29692E-001	4.69459E-003	0.00000E+000	7.30550E-001	-1.17055E-004	10	...........	-327.56
	2529	50.6	7.20753E-001	4.52983E-003	0.00000E+000	7.21550E-001	-1.07055E-004	10	...........	-327.56
	2538	50.78	7.11812E-001	4.36505E-003	0.00000E+000	7.12550E-001	-1.17888E-004	10	...........	-327.56
	2547	50.96	7.02830E-001	4.19739E-003	0.00000E+000	7.03550E-001	-1.17055E-004	10	...........	-327.56
	2556	51.14	6.93810E-001	4.02045E-003	0.00000E+000	6.94550E-001	-1.26221E-004	10	...........	-327.56
	2565	51.32	6.84758E-001	3.84500E-003	0.00000E+000	6.85550E-001	-1.14555E-004	10	...........	-327.56
	2574	51.5	6.75853E-001	3.69869E-003	0.00000E+000	6.76550E-001	-1.04555E-004	10	...........	-327.56
	2583	51.68	6.66823E-001	3.53136E-003	0.00000E+000	6.67550E-001	-1.00388E-004	10	...........	-327.56
	2592	51.86	6.57816E-001	3.36419E-003	0.00000E+000	6.58550E-001	-1.17888E-004	10	...........	-327.56
	2601	52.04	6.48851E-001	3.19558E-003	0.00000E+000	6.49550E-001	-1.07055E-004	10	...........	-327.56
	2610	52.22	6.39873E-001	3.03122E-003	0.00000E+000	6.40550E-001	-1.08721E-004	10	...........	-327.56
	2619	52.4	6.30783E-001	2.86059E-003	0.00000E+000	6.31550E-001	-1.21221E-004	10	...........	-327.56
	2628	52.58	6.21874E-001	2.68455E-003	0.00000E+000	6.22550E-001	-1.18721E-004	10	...........	-327.56
	2637	52.76	6.12878E-001	2.49628E-003	0.00000E+000	6.13550E-001	-1.28721E-004	10	...........	-327.56
	2646	52.94	6.03559E-001	2.27392E-003	0.00000E+000	6.04550E-001	-1.23721E-004	9	...........	-327.56
	2655	53.12	5.94689E-001	2.08833E-003	0.00000E+000	5.95550E-001	-1.17888E-004	9	...........	-327.56
	2664	53.3	5.85671E-001	1.87920E-003	0.00000E+000	5.86550E-001	-1.08721E-004	9	...........	-327.56
	2673	53.48	5.76645E-001	1.66203E-003	0.00000E+000	5.77550E-001	-1.10388E-004	9	...........	-327.56
	2682	53.66	5.67785E-001	1.44680E-003	0.00000E+000	5.68550E-001	-9.95548E-005	9	...........	-327.56
	2691	53.84	5.58752E-001	1.21629E-003	0.00000E+000	5.59550E-001	-1.22888E-004	9	...........	-327.56
	2700	54.02	5.49829E-001	9.77325E-004	0.00000E+000	5.50550E-001	-1.06221E-004	9	...........	-327.56
	2709	54.2	5.40877E-001	7.36429E-004	0.00000E+000	5.41550E-001	-1.12055E-004	9	...........	-327.56
	2718	54.38	5.31862E-001	4.57671E-004	0.00000E+000	5.32550E-001	-1.06221E-004	9	...........	-327.56
	2727	54.56	5.22964E-001	2.22605E-004	0.00000E+000	5.23550E-001	-1.13721E-004	9	...........	-327.56
	2736	54.74	5.14069E-001	-1.05299E-004	0.00000E+000	5.14550E-001	-1.12888E-004	8	...........	-327.56
	2745	54.92	5.05016E-001	-3.52875E-004	0.00000E+000	5.05550E-001	-1.12888E-004	9	...........	-327.56
	2754	55.1	4.96137E-001	-5.81140E-004	0.00000E+000	4.96550E-001	-9.53881E-005	9	...........	-327.56
	2763	55.28	4.87121E-001	-8.63095E-004	0.00000E+000	4.87550E-001	-1.02888E-004	9	...........	-327.56
	2772	55.46	4.78176E-001	-1.11678E-003	0.00000E+000	4.78550E-001	-1.11221E-004	9	...........	-327.56
	2781	55.64	4.69234E-001	-1.39979E-003	0.00000E+000	4.69550E-001	-1.23721E-004	9	...........	-327.56
	2790	55.82	4.60216E-001	-1.66222E-003	0.00000E+000	4.60550E-001	-1.23721E-004	9	...........	-327.56
	2799	56	4.51214E-001	-1.94161E-003	0.00000E+000	4.51550E-001	-1.22888E-004	9	...........	-327.56
	2808	56.18	4.42338E-001	-2.19554E-003	0.00000E+000	4.42550E-001	-9.62214E-005	9	...........	-327.56
	2817	56.36	4.33363E-001	-2.50261E-003	0.00000E+000	4.33550E-001	-1.10388E-004	9	...........	-327.56
	2826	56.54	4.24051E-001	-2.81058E-003	0.00000E+000	4.24550E-001	-1.12055E-004	10	...........	-327.56
	2835	56.72	4.15128E-001	-3.02090E-003	0.00000E+000	4.15550E-001	-1.10388E-004	10	...........	-327.56
	2844	56.9	4.06107E-001	-3.27008E-003	0.00000E+000	4.06550E-001	-1.19555E-004	10	...........	-327.56
	2853	57.08	3.97058E-001	-3.50850E-003	0.00000E+000	3.97550E-001	-1.22055E-004	10	...........	-327.56
	2862	57.26	3.88155E-001	-3.75769E-003	0.00000E+000	3.88550E-001	-1.11221E-004	10	...........	-327.56
	2871	57.44	3.79127E-001	-3.99371E-003	0.00000E+000	3.79550E-001	-1.20388E-004	10	...........	-327.56
	2880	57.62	3.70174E-001	-4.23819E-003	0.00000E+000	3.70550E-001	-1.13721E-004	10	...........	-327.56
	2889	57.8	3.61153E-001	-4.48705E-003	0.00000E+000	3.61550E-001	-1.11221E-004	10	...........	-327.56
	2898	57.98	3.52150E-001	-4.76938E-003	0.00000E+000	3.52550E-001	-1.17055E-004	10	...........	-327.56
	2907	58.16	3.43218E-001	-5.04554E-003	0.00000E+000	3.43550E-001	-1.14555E-004	10	...........	-327.56
	2916	58.34	3.34222E-001	-5.34606E-003	0.00000E+000	3.34550E-001	-1.19555E-004	10	...........	-327.56
	2925	58.52	3.25161E-001	-5.68577E-003	0.00000E+000	3.25550E-001	-1.01221E-004	10	...........	-327.56
	2934	58.7	3.16222E-001	-6.06136E-003	0.00000E+000	3.16550E-001	-1.04555E-004	10	...........	-327.56
	2943	58.88	3.07211E-001	-6.42914E-003	0.00000E+000	3.07550E-001	-1.10388E-004	10	...........	-327.56
	2952	59.06	2.98222E-001	-6.82946E-003	0.00000E+000	2.98550E-001	-1.05388E-004	10	...........	-327.56
	2961	59.24	2.89315E-001	-7.20335E-003	0.00000E+000	2.89550E-001	-1.21221E-004	10	...........	-327.56
	2970	59.42	2.80261E-001	-7.54136E-003	0.00000E+000	2.80550E-001	-1.04555E-004	10	...........	-327.56
	2979	59.6	2.71217E-001	-7.77779E-003	0.00000E+000	2.71550E-001	-1.24555E-004	10	...........	-327.56
	2988	59.78	2.62347E-001	-7.79794E-003	0.00000E+000	2.62550E-001	-1.02055E-004	10	...........	-327.56
	2997	59.96	2.53297E-001	-7.81726E-003	0.00000E+000	2.53550E-001	-1.17055E-004	10	...........	-327.56
	3006	60.14	2.44255E-001	-7.69909E-003	0.00000E+000	2.44550E-001	-1.19555E-004	10	...........	-327.56
	3015	60.32	2.35364E-001	-7.55495E-003	0.00000E+000	2.35550E-001	-1.07888E-004	10	...........	-327.56
	3024	60.5	2.26297E-001	-7.45228E-003	0.00000E+000	2.26550E-001	-1.03721E-004	10	...........	-327.56
	3033	60.68	2.17346E-001	-7.37627E-003	0.00000E+000	2.17550E-001	-1.11221E-004	10	...........	-327.56
	3042	60.86	2.08338E-001	-7.36097E-003	0.00000E+000	2.08550E-001	-1.06221E-004	10	...........	-327.56
	3051	61.04	1.99335E-001	-7.36014E-003	0.00000E+000	1.99550E-001	-1.14555E-004	10	...........	-327.56
	3060	61.22	1.90383E-001	-7.41195E-003	0.00000E+000	1.90550E-001	-1.19555E-004	10	...........	-327.56
	3069	61.4	1.81385E-001	-7.43846E-003	0.00000E+000	1.81550E-001	-1.08721E-004	10	...........	-327.56
	3078	61.58	1.72340E-001	-7.49877E-003	0.00000E+000	1.72550E-001	-1.17888E-004	10	...........	-327.56
	3087	61.76	1.63410E-001	-7.57134E-003	0.00000E+000	1.63550E-001	-1.04555E-004	10	...........	-327.56
	3096	61.94	1.54377E-001	-7.64270E-003	0.00000E+000	1.54550E-001	-1.16221E-004	10	...........	-327.56
	3105	62.12	1.45418E-001	-7.70247E-003	0.00000E+000	1.45550E-001	-1.15388E-004	10	...........	-327.56
	3114	62.3	1.36436E-001	-7.78606E-003	0.00000E+000	1.36550E-001	-1.21221E-004	10	...........	-327.56
	3123	62.48	1.27401E-001	-7.85371E-003	0.00000E+000	1.27550E-001	-1.23721E-004	10	...........	-327.56
	3132	62.66	1.18376E-001	-7.94211E-003	0.00000E+000	1.18550E-001	-1.17888E-004	10	...........	-327.56
	3141	62.84	1.09452E-001	-7.99286E-003	0.00000E+000	1.09550E-001	-1.03721E-004	10	...........	-327.56
	3150	63.02	1.00460E-001	-8.04415E-003	0.00000E+000	1.00550E-001	-1.02888E-004	10	...........	-327.56
	3159	63.2	9.14095E-002	-8.11021E-003	0.00000E+000	9.15500E-002	-1.01221E-004	10	...........	-327.56
	3168	63.38	8.25016E-002	-8.15737E-003	0.00000E+000	8.25500E-002	-1.00388E-004	10	...........	-327.56
	3177	63.56	7.34933E-002	-8.18165E-003	0.00000E+000	7.35500E-002	-1.15388E-004	10	...........	-327.56
	3186	63.74	6.44141E-002	-8.18483E-003	0.00000E+000	6.45500E-002	-1.25388E-004	10	...........	-327.56
	3195	63.92	5.55062E-002	-8.16358E-003	0.00000E+000	5.55500E-002	-1.18721E-004	10	...........	-327.56
	3204	64.1	4.64983E-002	-8.10263E-003	0.00000E+000	4.65500E-002	-1.21221E-004	10	...........	-327.56
	3213	64.28	3.75324E-002	-8.04662E-003	0.00000E+000	3.75500E-002	-1.15388E-004	10	...........	-327.56
	3222	64.46	2.85237E-002	-7.97081E-003	0.00000E+000	2.85500E-002	-1.02055E-004	10	...........	-327.56
	3231	64.64	1.94858E-002	-7.88224E-003	0.00000E+000	1.95500E-002	-1.00388E-004	10	...........	-327.56
	3240	64.82	1.05287E-002	-7.77667E-003	0.00000E+000	1.05500E-002	-1.17055E-004	10	...........	-327.56
	3249	65	1.52536E-003	-7.67989E-003	0.00000E+000	1.55002E-003	-1.14555E-004	10	...........	-327.56
	3258	65.18	-7.30047E-003	-7.62408E-003	0.00000E+000	-7.44995E-003	-9.62214E-005	10	...........	-327.56
	3267	65.36	-1.62388E-002	-7.60902E-003	0.00000E+000	-1.64500E-002	-1.03721E-004	10	...........	-327.56
	3276	65.54	-2.52571E-002	-7.61412E-003	0.00000E+000	-2.54500E-002	-1.04555E-004	10	...........	-327.56
	3285	65.72	-3.42892E-002	-7.72965E-003	0.00000E+000	-3.44500E-002	-1.04555E-004	10	...........	-327.56
	3294	65.9	-4.32209E-002	-7.80859E-003	0.00000E+000	-4.34500E-002	-1.33721E-004	10	...........	-327.56
	3303	66.08	-5.22392E-002	-7.96678E-003	0.00000E+000	-5.24500E-002	-1.16221E-004	10	...........	-327.56
	3312	66.26	-6.12563E-002	-8.15976E-003	0.00000E+000	-6.14500E-002	-1.30388E-004	10	...........	-327.56
	3321	66.44	-7.01667E-002	-8.38057E-003	0.00000E+000	-7.04500E-002	-1.12055E-004	10	...........	-327.56
	3330	66.62	-7.92446E-002	-8.65180E-003	0.00000E+000	-7.94500E-002	-1.20388E-004	10	...........	-327.56
[...]
	32794	655.9	5.42382E-001	2.86710E-002	0.00000E+000	5.43000E-001	-1.08721E-004	11	...........	-327.56
	32800	656.02	5.48393E-001	2.81482E-002	0.00000E+000	5.49000E-001	-1.31221E-004	11	...........	-327.56
	32806	656.14	5.54310E-001	2.79267E-002	0.00000E+000	5.55000E-001	-1.12888E-004	11	...........	-327.56
	32812	656.26	5.60320E-001	2.74430E-002	0.00000E+000	5.61000E-001	-1.11221E-004	11	...........	-327.56
	32818	656.38	5.66350E-001	2.71639E-002	0.00000E+000	5.67000E-001	-1.17888E-004	11	...........	-327.56
	32824	656.5	5.72362E-001	2.67334E-002	0.00000E+000	5.73000E-001	-1.09555E-004	11	...........	-327.56
	32830	656.62	5.78274E-001	2.62876E-002	0.00000E+000	5.79000E-001	-1.10388E-004	11	...........	-327.56
	32836	656.74	5.84309E-001	2.58614E-002	0.00000E+000	5.85000E-001	-1.37888E-004	11	...........	-327.56
	32842	656.86	5.90341E-001	2.55156E-002	0.00000E+000	5.91000E-001	-9.37214E-005	11	...........	-327.56
	32848	656.98	5.96361E-001	2.49760E-002	0.00000E+000	5.97000E-001	-1.12888E-004	11	...........	-327.56
	32854	657.1	6.02258E-001	2.46214E-002	0.00000E+000	6.03000E-001	-1.12888E-004	11	...........	-327.56
	32860	657.22	6.08033E-001	2.43285E-002	0.00000E+000	6.09000E-001	-1.32888E-004	10	...........	-327.56
	32866	657.34	6.14045E-001	2.37120E-002	0.00000E+000	6.15000E-001	-9.95548E-005	10	...........	-327.56
	32872	657.46	6.20065E-001	2.32810E-002	0.00000E+000	6.21000E-001	-1.12055E-004	10	...........	-327.56
	32878	657.58	6.26082E-001	2.29834E-002	0.00000E+000	6.27000E-001	-1.30388E-004	10	...........	-327.56
	32884	657.7	6.32021E-001	2.26217E-002	0.00000E+000	6.33000E-001	-1.17055E-004	10	...........	-327.56
	32890	657.82	6.38033E-001	2.20528E-002	0.00000E+000	6.39000E-001	-1.15388E-004	10	...........	-327.56
	32896	657.94	6.44076E-001	2.14759E-002	0.00000E+000	6.45000E-001	-1.00388E-004	10	...........	-327.56
	32902	658.06	6.50090E-001	2.10445E-002	0.00000E+000	6.51000E-001	-1.09555E-004	10	...........	-327.56
	32908	658.18	6.55985E-001	2.06709E-002	0.00000E+000	6.57000E-001	-1.12888E-004	10	...........	-327.56
	32914	658.3	6.62035E-001	2.02645E-002	0.00000E+000	6.63000E-001	-1.11221E-004	10	...........	-327.56
	32920	658.42	6.68046E-001	1.98160E-002	0.00000E+000	6.69000E-001	-1.12888E-004	10	...........	-327.56
	32926	658.54	6.74092E-001	1.96384E-002	0.00000E+000	6.75000E-001	-1.23721E-004	10	...........	-327.56
	32932	658.66	6.79997E-001	1.90682E-002	0.00000E+000	6.81000E-001	-1.19555E-004	10	...........	-327.56
	32938	658.78	6.86017E-001	1.87515E-002	0.00000E+000	6.87000E-001	-1.22055E-004	10	...........	-327.56
	32944	658.9	6.92052E-001	1.84890E-002	0.00000E+000	6.93000E-001	-1.11221E-004	10	...........	-327.56
	32950	659.02	6.98104E-001	1.82243E-002	0.00000E+000	6.99000E-001	-1.17055E-004	10	...........	-327.56
	32956	659.14	7.04043E-001	1.80079E-002	0.00000E+000	7.05000E-001	-9.70548E-005	10	...........	-327.56
	32962	659.26	7.10022E-001	1.74777E-002	0.00000E+000	7.11000E-001	-9.70548E-005	10	...........	-327.56
	32968	659.38	7.16036E-001	1.72244E-002	0.00000E+000	7.17000E-001	-1.00388E-004	10	...........	-327.56
	32974	659.5	7.22034E-001	1.68619E-002	0.00000E+000	7.23000E-001	-1.18721E-004	10	...........	-327.56
	32980	659.62	7.28045E-001	1.66976E-002	0.00000E+000	7.29000E-001	-1.12055E-004	10	...........	-327.56
	32986	659.74	7.33967E-001	1.62142E-002	0.00000E+000	7.35000E-001	-1.15388E-004	10	...........	-327.56
	32992	659.86	7.40000E-001	1.59475E-002	0.00000E+000	7.41000E-001	-1.16221E-004	10	...........	-327.56
	32998	659.98	7.46047E-001	1.56075E-002	0.00000E+000	7.47000E-001	-1.17888E-004	10	...........	-327.56
	33004	660.1	7.52046E-001	1.51871E-002	0.00000E+000	7.53000E-001	-1.05388E-004	10	...........	-327.56
	33010	660.22	7.57969E-001	1.50273E-002	0.00000E+000	7.59000E-001	-9.45548E-005	10	...........	-327.56
	33016	660.34	7.63983E-001	1.46093E-002	0.00000E+000	7.65000E-001	-1.10388E-004	10	...........	-327.56
	33022	660.46	7.70018E-001	1.42358E-002	0.00000E+000	7.71000E-001	-1.12888E-004	10	...........	-327.56
	33028	660.58	7.76055E-001	1.38052E-002	0.00000E+000	7.77000E-001	-1.12055E-004	10	...........	-327.56
	33034	660.7	7.81949E-001	1.35360E-002	0.00000E+000	7.83000E-001	-1.12888E-004	10	...........	-327.56
	33040	660.82	7.87982E-001	1.30844E-002	0.00000E+000	7.89000E-001	-1.12888E-004	10	...........	-327.56
	33046	660.94	7.94016E-001	1.27800E-002	0.00000E+000	7.95000E-001	-1.11221E-004	10	...........	-327.56
	33052	661.06	8.00063E-001	1.21530E-002	0.00000E+000	8.01000E-001	-1.16221E-004	10	...........	-327.56
	33058	661.18	8.06072E-001	1.19856E-002	0.00000E+000	8.07000E-001	-9.95548E-005	10	...........	-327.56
	33064	661.3	8.11987E-001	1.17866E-002	0.00000E+000	8.13000E-001	-1.12055E-004	10	...........	-327.56
	33070	661.42	8.18032E-001	1.14730E-002	0.00000E+000	8.19000E-001	-1.06221E-004	10	...........	-327.56
	33076	661.54	8.24005E-001	1.12908E-002	0.00000E+000	8.25000E-001	-1.12055E-004	10	...........	-327.56
	33082	661.66	8.30015E-001	1.10270E-002	0.00000E+000	8.31000E-001	-1.09555E-004	10	...........	-327.56
	33088	661.78	8.35951E-001	1.07833E-002	0.00000E+000	8.37000E-001	-1.25388E-004	10	...........	-327.56
	33094	661.9	8.41957E-001	1.04968E-002	0.00000E+000	8.43000E-001	-1.18721E-004	10	...........	-327.56
	33100	662.02	8.48026E-001	1.05982E-002	0.00000E+000	8.49000E-001	-1.13721E-004	10	...........	-327.56
	33106	662.14	8.54022E-001	1.04611E-002	0.00000E+000	8.55000E-001	-1.21221E-004	10	...........	-327.56
	33112	662.26	8.59932E-001	1.02545E-002	0.00000E+000	8.61000E-001	-1.01221E-004	10	...........	-327.56
	33118	662.38	8.65964E-001	1.02880E-002	0.00000E+000	8.67000E-001	-9.95548E-005	10	...........	-327.56
	33124	662.5	8.72002E-001	1.01323E-002	0.00000E+000	8.73000E-001	-1.18721E-004	10	...........	-327.56
	33130	662.62	8.77997E-001	1.01250E-002	0.00000E+000	8.79000E-001	-1.05388E-004	10	...........	-327.56
	33136	662.74	8.83894E-001	1.01549E-002	0.00000E+000	8.85000E-001	-1.18721E-004	10	...........	-327.56
	33142	662.86	8.89945E-001	1.00715E-002	0.00000E+000	8.91000E-001	-1.13721E-004	10	...........	-327.56
	33148	662.98	8.95957E-001	1.00130E-002	0.00000E+000	8.97000E-001	-1.14555E-004	10	...........	-327.56
	33154	663.1	9.01982E-001	9.96890E-003	0.00000E+000	9.03000E-001	-1.07888E-004	10	...........	-327.56
	33160	663.22	9.07988E-001	1.00611E-002	0.00000E+000	9.09000E-001	-1.17888E-004	10	...........	-327.56
	33166	663.34	9.13934E-001	1.00106E-002	0.00000E+000	9.15000E-001	-1.12055E-004	10	...........	-327.56
	33172	663.46	9.19950E-001	1.01356E-002	0.00000E+000	9.21000E-001	-1.12055E-004	10	...........	-327.56
	33178	663.58	9.25926E-001	1.01568E-002	0.00000E+000	9.27000E-001	-1.11221E-004	10	...........	-327.56
	33184	663.7	9.31937E-001	1.00724E-002	0.00000E+000	9.33000E-001	-1.10388E-004	10	...........	-327.56
	33190	663.82	9.37852E-001	9.98631E-003	0.00000E+000	9.39000E-001	-1.02888E-004	10	...........	-327.56
	33196	663.94	9.43905E-001	1.00013E-002	0.00000E+000	9.45000E-001	-1.02055E-004	10	...........	-327.56
	33202	664.06	9.49906E-001	1.01100E-002	0.00000E+000	9.51000E-001	-1.11221E-004	10	...........	-327.56
	33208	664.18	9.55917E-001	1.01772E-002	0.00000E+000	9.57000E-001	-1.14555E-004	10	...........	-327.56
	33214	664.3	9.61814E-001	1.01701E-002	0.00000E+000	9.63000E-001	-1.13721E-004	10	...........	-327.56
	33220	664.42	9.67893E-001	1.01482E-002	0.00000E+000	9.69000E-001	-1.26221E-004	10	...........	-327.56
	33226	664.54	9.73864E-001	1.01489E-002	0.00000E+000	9.75000E-001	-1.12888E-004	10	...........	-327.56
	33232	664.66	9.79877E-001	1.05999E-002	0.00000E+000	9.81000E-001	-1.12888E-004	10	...........	-327.56
	33238	664.78	9.85795E-001	1.03017E-002	0.00000E+000	9.87000E-001	-1.22055E-004	10	...........	-327.56
	33244	664.9	9.91890E-001	1.01240E-002	0.00000E+000	9.93000E-001	-1.10388E-004	10	...........	-327.56
	33250	665.02	9.97836E-001	1.05104E-002	0.00000E+000	9.99000E-001	-1.04555E-004	10	...........	-327.56
	33256	665.14	1.00389E+000	1.02760E-002	0.00000E+000	1.00500E+000	-1.10388E-004	10	...........	-327.56
	33262	665.26	1.00989E+000	1.02780E-002	0.00000E+000	1.01100E+000	-1.14555E-004	10	...........	-327.56
	33268	665.38	1.01589E+000	1.03583E-002	0.00000E+000	1.01700E+000	-1.07055E-004	10	...........	-327.56
	33274	665.5	1.02183E+000	1.02316E-002	0.00000E+000	1.02300E+000	-1.04555E-004	10	...........	-327.56
	33280	665.62	1.02784E+000	1.03020E-002	0.00000E+000	1.02900E+000	-1.07055E-004	10	...........	-327.56
	33286	665.74	1.03386E+000	1.04516E-002	0.00000E+000	1.03500E+000	-1.06221E-004	10	...........	-327.56
	33292	665.86	1.03984E+000	1.03482E-002	0.00000E+000	1.04100E+000	-1.01221E-004	10	...........	-327.56
	33298	665.98	1.04579E+000	1.05824E-002	0.00000E+000	1.04700E+000	-1.03721E-004	10	...........	-327.56
	33304	666.1	1.05180E+000	1.05127E-002	0.00000E+000	1.05300E+000	-1.07888E-004	10	...........	-327.56
	33310	666.22	1.05783E+000	1.07267E-002	0.00000E+000	1.05900E+000	-1.10388E-004	10	...........	-327.56
	33316	666.34	1.06384E+000	1.08432E-002	0.00000E+000	1.06500E+000	-1.22888E-004	10	...........	-327.56
	33322	666.46	1.06978E+000	1.09642E-002	0.00000E+000	1.07100E+000	-1.36221E-004	10	...........	-327.56
	33328	666.58	1.07576E+000	1.10474E-002	0.00000E+000	1.07700E+000	-1.17888E-004	10	...........	-327.56
	33334	666.7	1.08181E+000	1.11429E-002	0.00000E+000	1.08300E+000	-1.14555E-004	10	...........	-327.56
	33340	666.82	1.08780E+000	1.13210E-002	0.00000E+000	1.08900E+000	-1.06221E-004	10	...........	-327.56
	33346	666.94	1.09374E+000	1.14772E-002	0.00000E+000	1.09500E+000	-1.15388E-004	10	...........	-327.56
	33352	667.06	1.09975E+000	1.16699E-002	0.00000E+000	1.10100E+000	-1.17055E-004	10	...........	-327.56
	33358	667.18	1.10578E+000	1.18423E-002	0.00000E+000	1.10700E+000	-9.53881E-005	10	...........	-327.56
	33364	667.3	1.11178E+000	1.21384E-002	0.00000E+000	1.11300E+000	-1.01221E-004	10	...........	-327.56
	33370	667.42	1.11769E+000	1.24258E-002	0.00000E+000	1.11900E+000	-1.22888E-004	10	...........	-327.56
	33376	667.54	1.12372E+000	1.26950E-002	0.00000E+000	1.12500E+000	-1.12055E-004	10	...........	-327.56
	33382	667.66	1.12971E+000	1.30091E-002	0.00000E+000	1.13100E+000	-1.02888E-004	10	...........	-327.56
	33388	667.78	1.13571E+000	1.33096E-002	0.00000E+000	1.13700E+000	-1.19555E-004	10	...........	-327.56
	33394	667.9	1.14159E+000	1.36881E-002	0.00000E+000	1.14300E+000	-1.22055E-004	10	...........	-327.56
	33400	668.02	1.14763E+000	1.40826E-002	0.00000E+000	1.14900E+000	-1.21221E-004	10	...........	-327.56
	33406	668.14	1.15366E+000	1.46146E-002	0.00000E+000	1.15500E+000	-1.15388E-004	10	...........	-327.56
	33412	668.26	1.15965E+000	1.50301E-002	0.00000E+000	1.16100E+000	-1.19555E-004	10	...........	-327.56
	33418	668.38	1.16554E+000	1.56122E-002	0.00000E+000	1.16700E+000	-1.15388E-004	10	...........	-327.56
	33424	668.5	1.17157E+000	1.60967E-002	0.00000E+000	1.17300E+000	-1.05388E-004	10	...........	-327.56
	33430	668.62	1.17757E+000	1.67839E-002	0.00000E+000	1.17900E+000	-1.09555E-004	10	...........	-327.56
	33436	668.74	1.18360E+000	1.74740E-002	0.00000E+000	1.18500E+000	-9.70548E-005	10	...........	-327.56
	33442	668.86	1.18959E+000	1.80739E-002	0.00000E+000	1.19100E+000	-1.04555E-004	10	...........	-327.56
	33448	668.98	1.19551E+000	1.88514E-002	0.00000E+000	1.19700E+000	-1.04555E-004	10	...........	-327.56
	33454	669.1	1.20154E+000	1.96934E-002	0.00000E+000	1.20300E+000	-1.16221E-004	10	...........	-327.56
	33460	669.22	1.20754E+000	2.06504E-002	0.00000E+000	1.20900E+000	-1.03721E-004	10	...........	-327.56
	33466	669.34	1.21353E+000	2.16000E-002	0.00000E+000	1.21500E+000	-1.04555E-004	10	...........	-327.56
	33472	669.46	1.21944E+000	2.27568E-002	0.00000E+000	1.22100E+000	-1.17055E-004	10	...........	-327.56
	33478	669.58	1.22550E+000	2.39324E-002	0.00000E+000	1.22700E+000	-9.95548E-005	10	...........	-327.56
	33484	669.7	1.23147E+000	2.50412E-002	0.00000E+000	1.23300E+000	-1.14555E-004	10	...........	-327.56
	33490	669.82	1.23748E+000	2.65311E-002	0.00000E+000	1.23900E+000	-1.16221E-004	10	...........	-327.56
	33496	669.94	1.24366E+000	2.79227E-002	0.00000E+000	1.24500E+000	-1.16221E-004	11	...........	-327.56
	33502	670.06	1.24971E+000	2.98028E-002	0.00000E+000	1.25100E+000	-1.09555E-004	11	...........	-327.56
	33508	670.18	1.25573E+000	3.14684E-002	0.00000E+000	1.25700E+000	-9.95548E-005	11	...........	-327.56
	33514	670.3	1.26176E+000	3.32672E-002	0.00000E+000	1.26300E+000	-1.17055E-004	11	...........	-327.56
	33520	670.42	1.26764E+000	3.51861E-002	0.00000E+000	1.26900E+000	-1.17055E-004	11	...........	-327.56
	33526	670.54	1.27367E+000	3.70620E-002	0.00000E+000	1.27500E+000	-1.13721E-004	11	...........	-327.56
	33532	670.66	1.27967E+000	3.92237E-002	0.00000E+000	1.28100E+000	-1.12888E-004	11	...........	-327.56
	33538	670.78	1.28570E+000	4.12421E-002	0.00000E+000	1.28700E+000	-1.12888E-004	11	...........	-327.56
	33544	670.9	1.29170E+000	4.35760E-002	0.00000E+000	1.29300E+000	-1.22055E-004	11	...........	-327.56
	33550	671.02	1.29763E+000	4.56169E-002	0.00000E+000	1.29900E+000	-1.18721E-004	11	...........	-327.56
	33556	671.14	1.30364E+000	4.79719E-002	0.00000E+000	1.30500E+000	-1.12055E-004	11	...........	-327.56
	33562	671.26	1.30966E+000	5.06584E-002	0.00000E+000	1.31100E+000	-1.18721E-004	11	...........	-327.56
	33568	671.38	1.31569E+000	5.31649E-002	0.00000E+000	1.31700E+000	-1.17055E-004	11	...........	-327.56
	33574	671.5	1.32157E+000	5.51054E-002	0.00000E+000	1.32300E+000	-1.11221E-004	11	...........	-327.56
	33580	671.62	1.32761E+000	5.79954E-002	0.00000E+000	1.32900E+000	-1.05388E-004	11	...........	-327.56
	33586	671.74	1.33358E+000	6.02268E-002	0.00000E+000	1.33500E+000	-1.30388E-004	11	...........	-327.56
	33592	671.86	1.33960E+000	6.28802E-002	0.00000E+000	1.34100E+000	-1.05388E-004	11	...........	-327.56
	33598	671.98	1.34553E+000	6.55522E-002	0.00000E+000	1.34700E+000	-1.17055E-004	11	...........	-327.56
	33604	672.1	1.35152E+000	6.78816E-002	0.00000E+000	1.35300E+000	-1.15388E-004	11	...........	-327.56
	33610	672.22	1.35754E+000	7.04668E-002	0.00000E+000	1.35900E+000	-9.70548E-005	11	...........	-327.56
	33616	672.34	1.36357E+000	7.32520E-002	0.00000E+000	1.36500E+000	-1.04555E-004	11	...........	-327.56
	33622	672.46	1.36953E+000	7.61052E-002	0.00000E+000	1.37100E+000	-1.05388E-004	11	...........	-327.56
	33628	672.58	1.37550E+000	7.88651E-002	0.00000E+000	1.37700E+000	-1.02888E-004	11	...........	-327.56
	33634	672.7	1.38151E+000	8.20731E-002	0.00000E+000	1.38300E+000	-9.95548E-005	11	...........	-327.56
	33640	672.82	1.38754E+000	8.41302E-002	0.00000E+000	1.38900E+000	-1.21221E-004	11	...........	-327.56
	33646	672.94	1.39353E+000	8.76065E-002	0.00000E+000	1.39500E+000	-1.09555E-004	11	...........	-327.56
	33652	673.06	1.39942E+000	8.96563E-002	0.00000E+000	1.40100E+000	-1.10388E-004	11	...........	-327.56
	33658	673.18	1.40544E+000	9.32264E-002	0.00000E+000	1.40700E+000	-9.78881E-005	11	...........	-327.56
	33664	673.3	1.41149E+000	9.63541E-002	0.00000E+000	1.41300E+000	-1.15388E-004	11	...........	-327.56
	33670	673.42	1.41750E+000	9.88480E-002	0.00000E+000	1.41900E+000	-1.22055E-004	11	...........	-327.56
	33676	673.54	1.42340E+000	1.01575E-001	0.00000E+000	1.42500E+000	-1.06221E-004	11	...........	-327.56
	33682	673.66	1.42941E+000	1.05011E-001	0.00000E+000	1.43100E+000	-1.12055E-004	11	...........	-327.56
	33688	673.78	1.43543E+000	1.08037E-001	0.00000E+000	1.43700E+000	-1.09555E-004	11	...........	-327.56
	33694	673.9	1.44145E+000	1.10526E-001	0.00000E+000	1.44300E+000	-1.14555E-004	11	...........	-327.56
	33700	674.02	1.44733E+000	1.13942E-001	0.00000E+000	1.44900E+000	-1.14555E-004	11	...........	-327.56
	33706	674.14	1.45337E+000	1.16641E-001	0.00000E+000	1.45500E+000	-1.11221E-004	11	...........	-327.56
	33712	674.26	1.45938E+000	1.20285E-001	0.00000E+000	1.46100E+000	-1.14555E-004	11	...........	-327.56
	33718	674.38	1.46542E+000	1.23209E-001	0.00000E+000	1.46700E+000	-1.13721E-004	11	...........	-327.56
	33724	674.5	1.47140E+000	1.26780E-001	0.00000E+000	1.47300E+000	-1.13721E-004	11	...........	-327.56
	33730	674.62	1.47735E+000	1.30863E-001	0.00000E+000	1.47900E+000	-1.05388E-004	11	...........	-327.56
	33736	674.74	1.48334E+000	1.32970E-001	0.00000E+000	1.48500E+000	-1.17888E-004	11	...........	-327.56
	33742	674.86	1.48936E+000	1.36318E-001	0.00000E+000	1.49100E+000	-1.09555E-004	11	...........	-327.56
	33748	674.98	1.49533E+000	1.39427E-001	0.00000E+000	1.49700E+000	-1.17888E-004	11	...........	-327.56
	33754	675.1	1.50127E+000	1.42898E-001	0.00000E+000	1.50300E+000	-1.09555E-004	11	...........	-327.56
	33760	675.22	1.50728E+000	1.46605E-001	0.00000E+000	1.50900E+000	-1.05388E-004	11	...........	-327.56
	33766	675.34	1.51330E+000	1.49147E-001	0.00000E+000	1.51500E+000	-1.08721E-004	11	...........	-327.56
	33772	675.46	1.51932E+000	1.52458E-001	0.00000E+000	1.52100E+000	-1.17888E-004	11	...........	-327.56
	33778	675.58	1.52522E+000	1.56472E-001	0.00000E+000	1.52700E+000	-1.19555E-004	11	...........	-327.56
	33784	675.7	1.53124E+000	1.59049E-001	0.00000E+000	1.53300E+000	-1.00388E-004	11	...........	-327.56
	33790	675.82	1.53721E+000	1.62936E-001	0.00000E+000	1.53900E+000	-1.15388E-004	11	...........	-327.56
	33796	675.94	1.54322E+000	1.62913E-001	0.00000E+000	1.54500E+000	-9.87214E-005	11	...........	-327.56
	33802	676.06	1.54914E+000	1.68351E-001	0.00000E+000	1.55100E+000	-1.17055E-004	11	...........	-327.56
	33808	676.18	1.55516E+000	1.71060E-001	0.00000E+000	1.55700E+000	-1.10388E-004	11	...........	-327.56
	33814	676.3	1.56115E+000	1.75718E-001	0.00000E+000	1.56300E+000	-1.01221E-004	11	...........	-327.56
	33820	676.42	1.56720E+000	1.76532E-001	0.00000E+000	1.56900E+000	-1.07888E-004	11	...........	-327.56
	33826	676.54	1.57320E+000	1.80903E-001	0.00000E+000	1.57500E+000	-1.12055E-004	11	...........	-327.56
	33832	676.66	1.57914E+000	1.80566E-001	0.00000E+000	1.58100E+000	-1.10388E-004	11	...........	-327.56
	33838	676.78	1.58515E+000	1.85322E-001	0.00000E+000	1.58700E+000	-1.12055E-004	11	...........	-327.56
	33844	676.9	1.59116E+000	1.89365E-001	0.00000E+000	1.59300E+000	-1.18721E-004	11	...........	-327.56
	33850	677.02	1.59717E+000	1.90621E-001	0.00000E+000	1.59900E+000	-1.06221E-004	11	...........	-327.56
	33856	677.14	1.60312E+000	1.95780E-001	0.00000E+000	1.60500E+000	-1.07888E-004	11	...........	-327.56
	33862	677.26	1.60910E+000	1.99534E-001	0.00000E+000	1.61100E+000	-9.87214E-005	11	...........	-327.56
	33868	677.38	1.61511E+000	2.03071E-001	0.00000E+000	1.61700E+000	-1.15388E-004	11	...........	-327.56
	33874	677.5	1.62114E+000	2.04609E-001	0.00000E+000	1.62300E+000	-1.12055E-004	11	...........	-327.56
	33880	677.62	1.62712E+000	2.06895E-001	0.00000E+000	1.62900E+000	-1.02888E-004	11	...........	-327.56
	33886	677.74	1.63306E+000	2.13066E-001	0.00000E+000	1.63500E+000	-1.01221E-004	11	...........	-327.56
	33892	677.86	1.63906E+000	2.18223E-001	0.00000E+000	1.64100E+000	-1.06221E-004	11	...........	-327.56
	33898	677.98	1.64507E+000	2.14608E-001	0.00000E+000	1.64700E+000	-1.00388E-004	11	...........	-327.56
	33904	678.1	1.65108E+000	2.20591E-001	0.00000E+000	1.65300E+000	-1.01221E-004	11	...........	-327.56
	33910	678.22	1.65701E+000	2.23941E-001	0.00000E+000	1.65900E+000	-1.21221E-004	11	...........	-327.56
	33916	678.34	1.66304E+000	2.26345E-001	0.00000E+000	1.66500E+000	-1.08721E-004	11	...........	-327.56
	33922	678.46	1.66904E+000	2.27957E-001	0.00000E+000	1.67100E+000	-1.17888E-004	11	...........	-327.56
	33928	678.58	1.67506E+000	2.33955E-001	0.00000E+000	1.67700E+000	-1.10388E-004	11	...........	-327.56
	33934	678.7	1.68098E+000	2.32938E-001	0.00000E+000	1.68300E+000	-1.17055E-004	11	...........	-327.56
	33940	678.82	1.68696E+000	2.40450E-001	0.00000E+000	1.68900E+000	-1.01221E-004	11	...........	-327.56
	33946	678.94	1.69303E+000	2.35324E-001	0.00000E+000	1.69500E+000	-1.27055E-004	11	...........	-327.56
	33951	679.04	1.69800E+000	2.46052E-001	0.00000E+000	1.70000E+000	-1.01221E-004	11	...........	-327.56