File: testing/data/240912_01_MCL16_CSWWE1_LSV100-INIT_CO2_750C.DTA
EXPLAIN
TAG	LSV
TITLE	LABEL	Linear Sweep Voltammetry	Test Identifier
DATE	LABEL	9/12/2024	Date
TIME	LABEL	15:40:48	Time
NOTES	NOTES	2	Notes...
	WE1 - double (looped) wire approx 30 mm depth
WE2 - carbon steel wire approx 10 mm depth
PSTAT	PSTAT	REF3000-48128	Potentiostat
VINIT	POTEN	0.00000E+000	T	Initial E (V)
VFINAL	POTEN	1.30000E+000	F	Final E (V)
SCANRATE	QUANT	9.99998E+001	Scan Rate (mV/s)
STEPSIZE	QUANT	1.00000E+000	Step Size (mV)
IMODE	SELECTOR	0	I/E Range Mode
IRANGE	QUANT	3.00000E-001	Max Current (mA)
AREA	QUANT	1.00000E+000	Sample Area (cm^2)
EQDELAY	QUANT	3.00000E+001	Equil. Time (s)
IRCOMP	SELECTOR	0	IRComp
PFCOR	QUANT	5.00000E+001	PF Corr. (ohm)
SAMPLINGMODE	SELECTOR	1	Sampling Mode
EOC	QUANT	0	Open Circuit (V)
ELECTRODETYPE	SELECTOR	0	Electrode Type
STRIPPING	TOGGLE	F	Used for Stripping
SEQUENCER	TOGGLE	TRUE	Run as Sequence
PSTATMODEL	IQUANT	5	Pstat Model
PSTATSECTION	LABEL	REF3000-48128	Pstat Section
PSTATSERIALNO	LABEL	48128	Pstat Serial Number
CTRLMODE	IQUANT	1	Control Mode
ELECTROMETER	IQUANT	0	RE=0 or CS=1
IESTAB	IQUANT	2	I/E Stability
CASPEED	IQUANT	4	Control Amp Speed
CONVENTION	IQUANT	1	Current Convention
ICHRANGE	IQUANT	2	Ich Range
ICHRANGEMODE	TOGGLE	F	Ich Auto Range
ICHOFFSETENABLE	TOGGLE	F	Ich Offset Enable
ICHOFFSET	QUANT	0	Ich Offset (V)
ICHFILTER	IQUANT	2	Ich Filter
VCHRANGE	IQUANT	2	Vch Range
VCHRANGEMODE	TOGGLE	F	Vch Auto Range
VCHOFFSETENABLE	TOGGLE	F	Vch Offset Enable
VCHOFFSET	QUANT	0	Vch Offset (V)
VCHFILTER	IQUANT	2	Vch Filter
ACHRANGE	IQUANT	2	Ach Range
ACHOFFSETENABLE	TOGGLE	F	Ach Offset Enable
ACHOFFSET	QUANT	0	Ach Offset (V)
ACHFILTER	IQUANT	1	Ach Filter
IERANGELOWERLIMIT	IQUANT	2	I/E Range Lower Limit
IERANGEMODE	TOGGLE	T	I/E AutoRange
IERANGE	IQUANT	9	I/E Range
POSFEEDENABLE	TOGGLE	F	Positive Feedback IR Comp
POSFEEDRESISTANCE	QUANT	0	Positive Feedback Resistance (ohm)
ACHSELECT	IQUANT	4	Ach Select
SENSECABLEID	IQUANT	14	Sense Cable ID
PWRCABLEID	IQUANT	7	Power Cable ID
DCCALDATE	LABEL	8/16/2024	DC Calibration Date
ACCALDATE	LABEL	8/16/2024	AC Calibration Date
THERMOSELECT	IQUANT	1	Thermo Select
FRAMEWORKVERSION	LABEL	7.10.3	Framework Version
INSTRUMENTVERSION	LABEL	4.91	Instrument Version
COMMVERSION	LABEL	5.10	Communications Version
CPUPLDVERSION	LABEL	6.00	CPU PLD Version
CTRLPLDVERSION	LABEL	3.21	CTRL PLD Version
PSTATPLDVERSION	LABEL	0.00	PSTAT PLD Version
COMPLIANCEVOLTAGE	IQUANT	0	Compliance Voltage
CURVE	TABLE	1301
	Pt	T	Vf	Im	Vu	Sig	Ach	IERange	Over	Cycle	Temp
	#	s	V vs. Ref.	A	V	V	V	#	bits	#	deg C
	0	0.01	2.19433E-005	1.72380E-004	0.00000E+000	5.96046E-008	-1.09555E-004	9	...........	0	-327.56
	3	0.04	2.86444E-003	6.72669E-004	0.00000E+000	3.00008E-003	-1.26221E-004	9	.....hs....	0	-327.56
	6	0.07	5.83694E-003	9.35963E-004	0.00000E+000	6.00004E-003	-1.22888E-004	9	...........	0	-327.56
	9	0.1	8.80194E-003	1.16621E-003	0.00000E+000	9.00006E-003	-1.21221E-004	9	...........	0	-327.56
	12	0.13	1.17961E-002	1.37404E-003	0.00000E+000	1.20000E-002	-1.22888E-004	9	...........	0	-327.56
	15	0.16	1.47019E-002	1.56708E-003	0.00000E+000	1.50000E-002	-1.11221E-004	9	...........	0	-327.56
	18	0.19	1.76953E-002	1.75065E-003	0.00000E+000	1.80001E-002	-1.24555E-004	9	...........	0	-327.56
	21	0.22	2.07186E-002	1.92258E-003	0.00000E+000	2.10000E-002	-1.06221E-004	9	...........	0	-327.56
	24	0.25	2.36728E-002	2.09119E-003	0.00000E+000	2.40000E-002	-9.62214E-005	9	...........	0	-327.56
	27	0.28	2.66836E-002	2.25795E-003	0.00000E+000	2.70001E-002	-1.17888E-004	9	...........	0	-327.56
	30	0.31	2.96486E-002	2.41407E-003	0.00000E+000	3.00000E-002	-1.07888E-004	9	...........	0	-327.56
	33	0.34	3.26561E-002	2.57333E-003	0.00000E+000	3.30001E-002	-1.21221E-004	9	...........	0	-327.56
	36	0.37	3.56403E-002	2.72731E-003	0.00000E+000	3.60001E-002	-1.02888E-004	9	.....h.....	0	-327.56
	39	0.4	3.88358E-002	2.91775E-003	0.00000E+000	3.90000E-002	-1.16221E-004	10	...........	0	-327.56
	42	0.43	4.18624E-002	3.06188E-003	0.00000E+000	4.20001E-002	-1.27888E-004	10	...........	0	-327.56
	45	0.46	4.48533E-002	3.20994E-003	0.00000E+000	4.50001E-002	-1.24555E-004	10	...........	0	-327.56
	48	0.49	4.79024E-002	3.35982E-003	0.00000E+000	4.80000E-002	-1.11221E-004	10	...........	0	-327.56
	51	0.52	5.08816E-002	3.51406E-003	0.00000E+000	5.10001E-002	-1.07888E-004	10	...........	0	-327.56
	54	0.55	5.38791E-002	3.65681E-003	0.00000E+000	5.40001E-002	-1.11221E-004	10	...........	0	-327.56
	57	0.58	5.68941E-002	3.82266E-003	0.00000E+000	5.70000E-002	-1.24555E-004	10	...........	0	-327.56
	60	0.61	5.99024E-002	3.97257E-003	0.00000E+000	6.00001E-002	-1.06221E-004	10	...........	0	-327.56
	63	0.64	6.29058E-002	4.13659E-003	0.00000E+000	6.30000E-002	-1.04555E-004	10	...........	0	-327.56
	66	0.67	6.58008E-002	4.28832E-003	0.00000E+000	6.60000E-002	-1.29555E-004	10	...........	0	-327.56
	69	0.7	6.88216E-002	4.45967E-003	0.00000E+000	6.90001E-002	-1.07888E-004	10	...........	0	-327.56
	72	0.73	7.18791E-002	4.62006E-003	0.00000E+000	7.20000E-002	-1.24555E-004	10	...........	0	-327.56
	75	0.76	7.48524E-002	4.78196E-003	0.00000E+000	7.50000E-002	-1.16221E-004	10	...........	0	-327.56
	78	0.79	7.78583E-002	4.94215E-003	0.00000E+000	7.80001E-002	-1.06221E-004	10	...........	0	-327.56
	81	0.82	8.08641E-002	5.11354E-003	0.00000E+000	8.10000E-002	-1.17888E-004	10	...........	0	-327.56
	84	0.85	8.38841E-002	5.29049E-003	0.00000E+000	8.40001E-002	-1.22888E-004	10	...........	0	-327.56
	87	0.88	8.68999E-002	5.46277E-003	0.00000E+000	8.70001E-002	-1.19555E-004	10	...........	0	-327.56
	90	0.91	8.97874E-002	5.63930E-003	0.00000E+000	9.00000E-002	-1.16221E-004	10	...........	0	-327.56
	93	0.94	9.27749E-002	5.82181E-003	0.00000E+000	9.30001E-002	-1.19555E-004	10	...........	0	-327.56
	96	0.97	9.58883E-002	6.01577E-003	0.00000E+000	9.60001E-002	-1.11221E-004	10	...........	0	-327.56
	99	1	9.88199E-002	6.19724E-003	0.00000E+000	9.90000E-002	-1.09555E-004	10	...........	0	-327.56
	102	1.03	1.01832E-001	6.38941E-003	0.00000E+000	1.02000E-001	-1.19555E-004	10	...........	0	-327.56
	105	1.06	1.04807E-001	6.59416E-003	0.00000E+000	1.05000E-001	-1.21221E-004	10	...........	0	-327.56
	108	1.09	1.07810E-001	6.79376E-003	0.00000E+000	1.08000E-001	-1.16221E-004	10	...........	0	-327.56
	111	1.12	1.10813E-001	7.00536E-003	0.00000E+000	1.11000E-001	-1.06221E-004	10	...........	0	-327.56
	114	1.15	1.13807E-001	7.22064E-003	0.00000E+000	1.14000E-001	-1.12888E-004	10	...........	0	-327.56
	117	1.18	1.16742E-001	7.42491E-003	0.00000E+000	1.17000E-001	-1.21221E-004	10	...........	0	-327.56
	120	1.21	1.19807E-001	7.65044E-003	0.00000E+000	1.20000E-001	-1.17888E-004	10	...........	0	-327.56
	123	1.24	1.22742E-001	7.86819E-003	0.00000E+000	1.23000E-001	-1.12888E-004	10	...........	0	-327.56
	126	1.27	1.25733E-001	8.11347E-003	0.00000E+000	1.26000E-001	-1.19555E-004	10	...........	0	-327.56
	129	1.3	1.28734E-001	8.35366E-003	0.00000E+000	1.29000E-001	-1.21221E-004	10	...........	0	-327.56
	132	1.33	1.31784E-001	8.60802E-003	0.00000E+000	1.32000E-001	-1.16221E-004	10	...........	0	-327.56
	135	1.36	1.34775E-001	8.84501E-003	0.00000E+000	1.35000E-001	-1.21221E-004	10	...........	0	-327.56
	138	1.39	1.37775E-001	9.09992E-003	0.00000E+000	1.38000E-001	-1.17888E-004	10	...........	0	-327.56
	141	1.42	1.40746E-001	9.36361E-003	0.00000E+000	1.41000E-001	-1.11221E-004	10	...........	0	-327.56
	144	1.45	1.43678E-001	9.64405E-003	0.00000E+000	1.44000E-001	-1.24555E-004	10	...........	0	-327.56
	147	1.48	1.46694E-001	9.91505E-003	0.00000E+000	1.47000E-001	-1.09555E-004	10	...........	0	-327.56
	150	1.51	1.49672E-001	1.02121E-002	0.00000E+000	1.50000E-001	-1.07888E-004	10	...........	0	-327.56
	153	1.54	1.52675E-001	1.05180E-002	0.00000E+000	1.53000E-001	-1.07888E-004	10	...........	0	-327.56
	156	1.57	1.55713E-001	1.08100E-002	0.00000E+000	1.56000E-001	-1.17888E-004	10	...........	0	-327.56
	159	1.6	1.58726E-001	1.11421E-002	0.00000E+000	1.59000E-001	-1.27888E-004	10	...........	0	-327.56
	162	1.63	1.61714E-001	1.14424E-002	0.00000E+000	1.62000E-001	-1.36221E-004	10	...........	0	-327.56
	165	1.66	1.64716E-001	1.17903E-002	0.00000E+000	1.65000E-001	-1.07888E-004	10	...........	0	-327.56
	168	1.69	1.67602E-001	1.21344E-002	0.00000E+000	1.68000E-001	-1.22888E-004	10	...........	0	-327.56
	171	1.72	1.70621E-001	1.24945E-002	0.00000E+000	1.71000E-001	-1.17888E-004	10	...........	0	-327.56
	174	1.75	1.73611E-001	1.28549E-002	0.00000E+000	1.74000E-001	-1.09555E-004	10	...........	0	-327.56
	177	1.78	1.76647E-001	1.32155E-002	0.00000E+000	1.77000E-001	-1.17888E-004	10	...........	0	-327.56
	180	1.81	1.79640E-001	1.36017E-002	0.00000E+000	1.80000E-001	-1.02888E-004	10	...........	0	-327.56
	183	1.84	1.82682E-001	1.40093E-002	0.00000E+000	1.83000E-001	-1.16221E-004	10	...........	0	-327.56
	186	1.87	1.85657E-001	1.44248E-002	0.00000E+000	1.86000E-001	-1.16221E-004	10	...........	0	-327.56
	189	1.9	1.88676E-001	1.48505E-002	0.00000E+000	1.89000E-001	-1.04555E-004	10	...........	0	-327.56
	192	1.93	1.91639E-001	1.52839E-002	0.00000E+000	1.92000E-001	-1.34555E-004	10	...........	0	-327.56
	195	1.96	1.94567E-001	1.57548E-002	0.00000E+000	1.95000E-001	-1.14555E-004	10	...........	0	-327.56
	198	1.99	1.97582E-001	1.61961E-002	0.00000E+000	1.98000E-001	-1.12888E-004	10	...........	0	-327.56
	201	2.02	2.00585E-001	1.66753E-002	0.00000E+000	2.01000E-001	-1.09555E-004	10	...........	0	-327.56
	204	2.05	2.03607E-001	1.71815E-002	0.00000E+000	2.04000E-001	-1.12888E-004	10	...........	0	-327.56
	207	2.08	2.06582E-001	1.76917E-002	0.00000E+000	2.07000E-001	-1.21221E-004	10	...........	0	-327.56
	210	2.11	2.09586E-001	1.82261E-002	0.00000E+000	2.10000E-001	-1.16221E-004	10	...........	0	-327.56
	213	2.14	2.12588E-001	1.87745E-002	0.00000E+000	2.13000E-001	-1.21221E-004	10	...........	0	-327.56
	216	2.17	2.15547E-001	1.93411E-002	0.00000E+000	2.16000E-001	-1.07888E-004	10	...........	0	-327.56
	219	2.2	2.18440E-001	1.99241E-002	0.00000E+000	2.19000E-001	-1.16221E-004	10	...........	0	-327.56
	222	2.23	2.21480E-001	2.05412E-002	0.00000E+000	2.22000E-001	-1.11221E-004	10	...........	0	-327.56
	225	2.26	2.24489E-001	2.11701E-002	0.00000E+000	2.25000E-001	-1.31221E-004	10	...........	0	-327.56
	228	2.29	2.27525E-001	2.18074E-002	0.00000E+000	2.28000E-001	-1.12888E-004	10	...........	0	-327.56
	231	2.32	2.30480E-001	2.24699E-002	0.00000E+000	2.31000E-001	-1.24555E-004	10	...........	0	-327.56
	234	2.35	2.33527E-001	2.31523E-002	0.00000E+000	2.34000E-001	-1.12888E-004	10	...........	0	-327.56
	237	2.38	2.36519E-001	2.38607E-002	0.00000E+000	2.37000E-001	-1.04555E-004	10	...........	0	-327.56
	240	2.41	2.39492E-001	2.46062E-002	0.00000E+000	2.40000E-001	-1.17888E-004	10	...........	0	-327.56
	243	2.44	2.42477E-001	2.53476E-002	0.00000E+000	2.43000E-001	-1.11221E-004	10	...........	0	-327.56
	246	2.47	2.45385E-001	2.61230E-002	0.00000E+000	2.46000E-001	-1.11221E-004	10	...........	0	-327.56
	249	2.5	2.48408E-001	2.69212E-002	0.00000E+000	2.49000E-001	-1.26221E-004	10	...........	0	-327.56
	252	2.53	2.51720E-001	2.78685E-002	0.00000E+000	2.52000E-001	-1.24555E-004	11	...........	0	-327.56
	255	2.56	2.54707E-001	2.86741E-002	0.00000E+000	2.55000E-001	-1.19555E-004	11	...........	0	-327.56
	258	2.59	2.57716E-001	2.95530E-002	0.00000E+000	2.58000E-001	-1.09555E-004	11	...........	0	-327.56
	261	2.62	2.60729E-001	3.04491E-002	0.00000E+000	2.61000E-001	-1.19555E-004	11	...........	0	-327.56
	264	2.65	2.63749E-001	3.13920E-002	0.00000E+000	2.64000E-001	-1.07888E-004	11	...........	0	-327.56
	267	2.68	2.66715E-001	3.23336E-002	0.00000E+000	2.67000E-001	-1.06221E-004	11	...........	0	-327.56
	270	2.71	2.69597E-001	3.33018E-002	0.00000E+000	2.70000E-001	-1.09555E-004	11	...........	0	-327.56
	273	2.74	2.72661E-001	3.42894E-002	0.00000E+000	2.73000E-001	-1.32888E-004	11	...........	0	-327.56
	276	2.77	2.75694E-001	3.53078E-002	0.00000E+000	2.76000E-001	-1.19555E-004	11	...........	0	-327.56
	279	2.8	2.78687E-001	3.63732E-002	0.00000E+000	2.79000E-001	-1.07888E-004	11	...........	0	-327.56
	282	2.83	2.81678E-001	3.74385E-002	0.00000E+000	2.82000E-001	-1.09555E-004	11	...........	0	-327.56
	285	2.86	2.84716E-001	3.85172E-002	0.00000E+000	2.85000E-001	-1.24555E-004	11	...........	0	-327.56
	288	2.89	2.87689E-001	3.96339E-002	0.00000E+000	2.88000E-001	-1.32888E-004	11	...........	0	-327.56
	291	2.92	2.90682E-001	4.07945E-002	0.00000E+000	2.91000E-001	-1.27888E-004	11	...........	0	-327.56
	294	2.95	2.93710E-001	4.20119E-002	0.00000E+000	2.94000E-001	-1.07888E-004	11	...........	0	-327.56
	297	2.98	2.96615E-001	4.32226E-002	0.00000E+000	2.97000E-001	-1.02888E-004	11	...........	0	-327.56
	300	3.01	2.99651E-001	4.44798E-002	0.00000E+000	3.00000E-001	-1.26221E-004	11	...........	0	-327.56
	303	3.04	3.02666E-001	4.57815E-002	0.00000E+000	3.03000E-001	-1.29555E-004	11	...........	0	-327.56
	306	3.07	3.05654E-001	4.71065E-002	0.00000E+000	3.06000E-001	-1.19555E-004	11	...........	0	-327.56
	309	3.1	3.08684E-001	4.84458E-002	0.00000E+000	3.09000E-001	-1.32888E-004	11	...........	0	-327.56
	312	3.13	3.11650E-001	4.98341E-002	0.00000E+000	3.12000E-001	-1.24555E-004	11	...........	0	-327.56
	315	3.16	3.14636E-001	5.12432E-002	0.00000E+000	3.15000E-001	-1.01221E-004	11	...........	0	-327.56
	318	3.19	3.17636E-001	5.27096E-002	0.00000E+000	3.18000E-001	-1.02888E-004	11	...........	0	-327.56
	321	3.22	3.20544E-001	5.41975E-002	0.00000E+000	3.21000E-001	-1.02888E-004	11	...........	0	-327.56
	324	3.25	3.23586E-001	5.57339E-002	0.00000E+000	3.24000E-001	-9.78881E-005	11	...........	0	-327.56
	327	3.28	3.26574E-001	5.72742E-002	0.00000E+000	3.27000E-001	-1.17888E-004	11	...........	0	-327.56
	330	3.31	3.29579E-001	5.89077E-002	0.00000E+000	3.30000E-001	-1.01221E-004	11	...........	0	-327.56
	333	3.34	3.32620E-001	6.05915E-002	0.00000E+000	3.33000E-001	-1.19555E-004	11	...........	0	-327.56
	336	3.37	3.35611E-001	6.22979E-002	0.00000E+000	3.36000E-001	-1.22888E-004	11	...........	0	-327.56
	339	3.4	3.38623E-001	6.40237E-002	0.00000E+000	3.39000E-001	-1.04555E-004	11	...........	0	-327.56
	342	3.43	3.41603E-001	6.57996E-002	0.00000E+000	3.42000E-001	-1.16221E-004	11	...........	0	-327.56
	345	3.46	3.44604E-001	6.76377E-002	0.00000E+000	3.45000E-001	-1.17888E-004	11	...........	0	-327.56
	348	3.49	3.47532E-001	6.95023E-002	0.00000E+000	3.48000E-001	-1.22888E-004	11	...........	0	-327.56
	351	3.52	3.50511E-001	7.14334E-002	0.00000E+000	3.51000E-001	-1.19555E-004	11	...........	0	-327.56
	354	3.55	3.53541E-001	7.33779E-002	0.00000E+000	3.54000E-001	-1.21221E-004	11	...........	0	-327.56
	357	3.58	3.56591E-001	7.53777E-002	0.00000E+000	3.57000E-001	-1.21221E-004	11	...........	0	-327.56
	360	3.61	3.59556E-001	7.74301E-002	0.00000E+000	3.60000E-001	-1.12888E-004	11	...........	0	-327.56
	363	3.64	3.62564E-001	7.95305E-002	0.00000E+000	3.63000E-001	-1.19555E-004	11	...........	0	-327.56
	366	3.67	3.65551E-001	8.17002E-002	0.00000E+000	3.66000E-001	-1.02888E-004	11	...........	0	-327.56
	369	3.7	3.68561E-001	8.39090E-002	0.00000E+000	3.69000E-001	-1.06221E-004	11	...........	0	-327.56
	372	3.73	3.71463E-001	8.61669E-002	0.00000E+000	3.72000E-001	-1.24555E-004	11	...........	0	-327.56
	375	3.76	3.74420E-001	8.84613E-002	0.00000E+000	3.75000E-001	-1.12888E-004	11	...........	0	-327.56
	378	3.79	3.77520E-001	9.08455E-002	0.00000E+000	3.78000E-001	-1.07888E-004	11	...........	0	-327.56
	381	3.82	3.80503E-001	9.32291E-002	0.00000E+000	3.81000E-001	-1.22888E-004	11	...........	0	-327.56
	384	3.85	3.83481E-001	9.56856E-002	0.00000E+000	3.84000E-001	-1.01221E-004	11	...........	0	-327.56
	387	3.88	3.86509E-001	9.81918E-002	0.00000E+000	3.87000E-001	-1.17888E-004	11	...........	0	-327.56
	390	3.91	3.89511E-001	1.00724E-001	0.00000E+000	3.90000E-001	-1.19555E-004	11	...........	0	-327.56
	393	3.94	3.92503E-001	1.03240E-001	0.00000E+000	3.93000E-001	-1.26221E-004	11	...........	0	-327.56
	396	3.97	3.95524E-001	1.05924E-001	0.00000E+000	3.96000E-001	-1.19555E-004	11	...........	0	-327.56
	399	4	3.98386E-001	1.08615E-001	0.00000E+000	3.99000E-001	-1.17888E-004	11	...........	0	-327.56
	402	4.03	4.01520E-001	1.11319E-001	0.00000E+000	4.02000E-001	-1.07888E-004	11	...........	0	-327.56
	405	4.06	4.04466E-001	1.14088E-001	0.00000E+000	4.05000E-001	-1.19555E-004	11	...........	0	-327.56
	408	4.09	4.07463E-001	1.16964E-001	0.00000E+000	4.08000E-001	-1.07888E-004	11	...........	0	-327.56
	411	4.12	4.10442E-001	1.19804E-001	0.00000E+000	4.11000E-001	-1.14555E-004	11	...........	0	-327.56
	414	4.15	4.13475E-001	1.22656E-001	0.00000E+000	4.14000E-001	-1.22888E-004	11	...........	0	-327.56
	417	4.18	4.16483E-001	1.25564E-001	0.00000E+000	4.17000E-001	-1.22888E-004	11	...........	0	-327.56
	420	4.21	4.19489E-001	1.28564E-001	0.00000E+000	4.20000E-001	-1.21221E-004	11	...........	0	-327.56
	423	4.24	4.22431E-001	1.31564E-001	0.00000E+000	4.23000E-001	-1.04555E-004	11	...........	0	-327.56
	426	4.27	4.25481E-001	1.34745E-001	0.00000E+000	4.26000E-001	-1.09555E-004	11	...........	0	-327.56
	429	4.3	4.28409E-001	1.37835E-001	0.00000E+000	4.29000E-001	-1.19555E-004	11	...........	0	-327.56
	432	4.33	4.31377E-001	1.40992E-001	0.00000E+000	4.32000E-001	-1.14555E-004	11	...........	0	-327.56
	435	4.36	4.34393E-001	1.44246E-001	0.00000E+000	4.35000E-001	-1.11221E-004	11	...........	0	-327.56
	438	4.39	4.37414E-001	1.47467E-001	0.00000E+000	4.38000E-001	-1.11221E-004	11	...........	0	-327.56
	441	4.42	4.40413E-001	1.50734E-001	0.00000E+000	4.41000E-001	-1.06221E-004	11	...........	0	-327.56
	444	4.45	4.43420E-001	1.54076E-001	0.00000E+000	4.44000E-001	-1.01221E-004	11	...........	0	-327.56
	447	4.48	4.46400E-001	1.57479E-001	0.00000E+000	4.47000E-001	-1.22888E-004	11	...........	0	-327.56
	450	4.51	4.49399E-001	1.60850E-001	0.00000E+000	4.50000E-001	-1.19555E-004	11	...........	0	-327.56
	453	4.54	4.52324E-001	1.64302E-001	0.00000E+000	4.53000E-001	-1.02888E-004	11	...........	0	-327.56
	456	4.57	4.55313E-001	1.67845E-001	0.00000E+000	4.56000E-001	-1.36221E-004	11	...........	0	-327.56
	459	4.6	4.58316E-001	1.71428E-001	0.00000E+000	4.59000E-001	-1.26221E-004	11	...........	0	-327.56
	462	4.63	4.61320E-001	1.75083E-001	0.00000E+000	4.62000E-001	-1.19555E-004	11	...........	0	-327.56
	465	4.66	4.64361E-001	1.78700E-001	0.00000E+000	4.65000E-001	-1.04555E-004	11	...........	0	-327.56
	468	4.69	4.67343E-001	1.82369E-001	0.00000E+000	4.68000E-001	-1.01221E-004	11	...........	0	-327.56
	471	4.72	4.70332E-001	1.86100E-001	0.00000E+000	4.71000E-001	-1.21221E-004	11	...........	0	-327.56
	474	4.75	4.73329E-001	1.89923E-001	0.00000E+000	4.74000E-001	-1.06221E-004	11	...........	0	-327.56
	477	4.78	4.76261E-001	1.93697E-001	0.00000E+000	4.77000E-001	-1.21221E-004	11	...........	0	-327.56
	480	4.81	4.79224E-001	1.97597E-001	0.00000E+000	4.80000E-001	-1.22888E-004	11	...........	0	-327.56
	483	4.84	4.82250E-001	2.01594E-001	0.00000E+000	4.83000E-001	-1.17888E-004	11	...........	0	-327.56
	486	4.87	4.85271E-001	2.05515E-001	0.00000E+000	4.86000E-001	-1.16221E-004	11	...........	0	-327.56
	489	4.9	4.88301E-001	2.09534E-001	0.00000E+000	4.89000E-001	-1.12888E-004	11	...........	0	-327.56
	492	4.93	4.91286E-001	2.13438E-001	0.00000E+000	4.92000E-001	-1.01221E-004	11	...........	0	-327.56
	495	4.96	4.94298E-001	2.17489E-001	0.00000E+000	4.95000E-001	-1.14555E-004	11	...........	0	-327.56
	498	4.99	4.97286E-001	2.21596E-001	0.00000E+000	4.98000E-001	-1.16221E-004	11	...........	0	-327.56
	501	5.02	5.00148E-001	2.25794E-001	0.00000E+000	5.01000E-001	-9.28881E-005	11	...........	0	-327.56
	504	5.05	5.03181E-001	2.29928E-001	0.00000E+000	5.04000E-001	-1.01221E-004	11	...........	0	-327.56
	507	5.08	5.06198E-001	2.34168E-001	0.00000E+000	5.07000E-001	-1.24555E-004	11	...........	0	-327.56
	510	5.11	5.09207E-001	2.38426E-001	0.00000E+000	5.10000E-001	-1.11221E-004	11	...........	0	-327.56
	513	5.14	5.12164E-001	2.42613E-001	0.00000E+000	5.13000E-001	-1.16221E-004	11	...........	0	-327.56
	516	5.17	5.15177E-001	2.47009E-001	0.00000E+000	5.16000E-001	-1.12888E-004	11	...........	0	-327.56
	519	5.2	5.18207E-001	2.51328E-001	0.00000E+000	5.19000E-001	-1.11221E-004	11	...........	0	-327.56
	522	5.23	5.21168E-001	2.55739E-001	0.00000E+000	5.22000E-001	-1.14555E-004	11	...........	0	-327.56
	525	5.26	5.24150E-001	2.60216E-001	0.00000E+000	5.25000E-001	-1.19555E-004	11	...........	0	-327.56
	528	5.29	5.27078E-001	2.64557E-001	0.00000E+000	5.28000E-001	-1.17888E-004	11	...........	0	-327.56
	531	5.32	5.30099E-001	2.68950E-001	0.00000E+000	5.31000E-001	-1.17888E-004	11	...........	0	-327.56
	534	5.35	5.33390E-001	2.74342E-001	0.00000E+000	5.34000E-001	-1.19555E-004	12	...........	0	-327.56
	537	5.38	5.36407E-001	2.78644E-001	0.00000E+000	5.37000E-001	-1.34555E-004	12	...........	0	-327.56
	540	5.41	5.39424E-001	2.82940E-001	0.00000E+000	5.40000E-001	-1.17888E-004	12	...........	0	-327.56
	543	5.44	5.42410E-001	2.87001E-001	0.00000E+000	5.43000E-001	-1.21221E-004	12	...........	0	-327.56
	546	5.47	5.45433E-001	2.91043E-001	0.00000E+000	5.46000E-001	-1.19555E-004	12	...........	0	-327.56
	549	5.5	5.48398E-001	2.94779E-001	0.00000E+000	5.49000E-001	-1.34555E-004	12	...........	0	-327.56
	552	5.53	5.51257E-001	2.98117E-001	0.00000E+000	5.52000E-001	-1.16221E-004	12	...........	0	-327.56
	555	5.56	5.54308E-001	3.01313E-001	0.00000E+000	5.55000E-001	-1.14555E-004	12	...........	0	-327.56
	558	5.59	5.57352E-001	3.04346E-001	0.00000E+000	5.58000E-001	-1.12888E-004	12	...........	0	-327.56
	561	5.62	5.60377E-001	3.06562E-001	0.00000E+000	5.61000E-001	-1.16221E-004	12	...........	0	-327.56
	564	5.65	5.63349E-001	3.08535E-001	0.00000E+000	5.64000E-001	-1.11221E-004	12	...........	0	-327.56
	567	5.68	5.66360E-001	3.10168E-001	0.00000E+000	5.67000E-001	-1.07888E-004	12	...........	0	-327.56
	570	5.71	5.69414E-001	3.11278E-001	0.00000E+000	5.70000E-001	-1.12888E-004	12	...........	0	-327.56
	573	5.74	5.72388E-001	3.12105E-001	0.00000E+000	5.73000E-001	-1.22888E-004	12	...........	0	-327.56
	576	5.77	5.75377E-001	3.12750E-001	0.00000E+000	5.76000E-001	-1.06221E-004	12	...........	0	-327.56
	579	5.8	5.78329E-001	3.13113E-001	0.00000E+000	5.79000E-001	-1.14555E-004	12	...........	0	-327.56
	582	5.83	5.81354E-001	3.13599E-001	0.00000E+000	5.82000E-001	-1.11221E-004	12	...........	0	-327.56
	585	5.86	5.84364E-001	3.14304E-001	0.00000E+000	5.85000E-001	-1.22888E-004	12	...........	0	-327.56
	588	5.89	5.87356E-001	3.15325E-001	0.00000E+000	5.88000E-001	-1.24555E-004	12	...........	0	-327.56
	591	5.92	5.90372E-001	3.16450E-001	0.00000E+000	5.91000E-001	-1.04555E-004	12	...........	0	-327.56
	594	5.95	5.93397E-001	3.17807E-001	0.00000E+000	5.94000E-001	-1.09555E-004	12	...........	0	-327.56
	597	5.98	5.96374E-001	3.19315E-001	0.00000E+000	5.97000E-001	-1.21221E-004	12	...........	0	-327.56
	600	6.01	5.99369E-001	3.21199E-001	0.00000E+000	6.00000E-001	-1.11221E-004	12	...........	0	-327.56
	603	6.04	6.02252E-001	3.22857E-001	0.00000E+000	6.03000E-001	-1.19555E-004	12	...........	0	-327.56
	606	6.07	6.05307E-001	3.24802E-001	0.00000E+000	6.06000E-001	-1.01221E-004	12	...........	0	-327.56
	609	6.1	6.08320E-001	3.26531E-001	0.00000E+000	6.09000E-001	-1.16221E-004	12	...........	0	-327.56
	612	6.13	6.11336E-001	3.28237E-001	0.00000E+000	6.12000E-001	-1.16221E-004	12	...........	0	-327.56
	615	6.16	6.14332E-001	3.29841E-001	0.00000E+000	6.15000E-001	-1.14555E-004	12	...........	0	-327.56
	618	6.19	6.17348E-001	3.30934E-001	0.00000E+000	6.18000E-001	-1.21221E-004	12	...........	0	-327.56
	621	6.22	6.20323E-001	3.31606E-001	0.00000E+000	6.21000E-001	-1.21221E-004	12	...........	0	-327.56
	624	6.25	6.23344E-001	3.31902E-001	0.00000E+000	6.24000E-001	-1.11221E-004	12	...........	0	-327.56
	627	6.28	6.26327E-001	3.31879E-001	0.00000E+000	6.27000E-001	-1.26221E-004	12	...........	0	-327.56
	630	6.31	6.29252E-001	3.31273E-001	0.00000E+000	6.30000E-001	-1.04555E-004	12	...........	0	-327.56
	633	6.34	6.32272E-001	3.30570E-001	0.00000E+000	6.33000E-001	-1.12888E-004	12	...........	0	-327.56
	636	6.37	6.35275E-001	3.29406E-001	0.00000E+000	6.36000E-001	-1.04555E-004	12	...........	0	-327.56
	639	6.4	6.38319E-001	3.28041E-001	0.00000E+000	6.39000E-001	-1.02888E-004	12	...........	0	-327.56
	642	6.43	6.41349E-001	3.26711E-001	0.00000E+000	6.42000E-001	-1.27888E-004	12	...........	0	-327.56
	645	6.46	6.44329E-001	3.24473E-001	0.00000E+000	6.45000E-001	-1.06221E-004	12	...........	0	-327.56
	648	6.49	6.47341E-001	3.21886E-001	0.00000E+000	6.48000E-001	-1.26221E-004	12	...........	0	-327.56
	651	6.52	6.50348E-001	3.18160E-001	0.00000E+000	6.51000E-001	-1.14555E-004	12	...........	0	-327.56
	654	6.55	6.53242E-001	3.12668E-001	0.00000E+000	6.54000E-001	-1.14555E-004	12	...........	0	-327.56
	657	6.58	6.56265E-001	3.05376E-001	0.00000E+000	6.57000E-001	-1.22888E-004	12	...........	0	-327.56
	660	6.61	6.59257E-001	2.96866E-001	0.00000E+000	6.60000E-001	-1.21221E-004	12	...........	0	-327.56
	663	6.64	6.62334E-001	2.87991E-001	0.00000E+000	6.63000E-001	-1.22888E-004	12	...........	0	-327.56
	666	6.67	6.65328E-001	2.79513E-001	0.00000E+000	6.66000E-001	-1.17888E-004	12	...........	0	-327.56
	669	6.7	6.68320E-001	2.71846E-001	0.00000E+000	6.69000E-001	-1.17888E-004	12	...........	0	-327.56
	672	6.73	6.71343E-001	2.64465E-001	0.00000E+000	6.72000E-001	-1.12888E-004	12	...........	0	-327.56
	675	6.76	6.74335E-001	2.58003E-001	0.00000E+000	6.75000E-001	-1.17888E-004	12	...........	0	-327.56
	678	6.79	6.77350E-001	2.51343E-001	0.00000E+000	6.78000E-001	-1.39555E-004	12	...........	0	-327.56
	681	6.82	6.80288E-001	2.45009E-001	0.00000E+000	6.81000E-001	-1.22888E-004	12	...........	0	-327.56
	684	6.85	6.83289E-001	2.39466E-001	0.00000E+000	6.84000E-001	-1.19555E-004	12	...........	0	-327.56
	687	6.88	6.86076E-001	2.33205E-001	0.00000E+000	6.87000E-001	-1.26221E-004	11	...........	0	-327.56
	690	6.91	6.89073E-001	2.28171E-001	0.00000E+000	6.90000E-001	-1.24555E-004	11	...........	0	-327.56
	693	6.94	6.92062E-001	2.23159E-001	0.00000E+000	6.93000E-001	-1.17888E-004	11	...........	0	-327.56
	696	6.97	6.95117E-001	2.18758E-001	0.00000E+000	6.96000E-001	-1.12888E-004	11	...........	0	-327.56
	699	7	6.98127E-001	2.14719E-001	0.00000E+000	6.99000E-001	-1.14555E-004	11	...........	0	-327.56
	702	7.03	7.01154E-001	2.10186E-001	0.00000E+000	7.02000E-001	-1.16221E-004	11	...........	0	-327.56
	705	7.06	7.04104E-001	2.06409E-001	0.00000E+000	7.05000E-001	-1.16221E-004	11	...........	0	-327.56
	708	7.09	7.07131E-001	2.03322E-001	0.00000E+000	7.08000E-001	-1.02888E-004	11	...........	0	-327.56
	711	7.12	7.10125E-001	1.99789E-001	0.00000E+000	7.11000E-001	-1.02888E-004	11	...........	0	-327.56
	714	7.15	7.13100E-001	1.96838E-001	0.00000E+000	7.14000E-001	-1.01221E-004	11	...........	0	-327.56
	717	7.18	7.16102E-001	1.94022E-001	0.00000E+000	7.17000E-001	-1.19555E-004	11	...........	0	-327.56
	720	7.21	7.19121E-001	1.91365E-001	0.00000E+000	7.20000E-001	-1.11221E-004	11	...........	0	-327.56
	723	7.24	7.22114E-001	1.88561E-001	0.00000E+000	7.23000E-001	-1.16221E-004	11	...........	0	-327.56
	726	7.27	7.25124E-001	1.86265E-001	0.00000E+000	7.26000E-001	-1.06221E-004	11	...........	0	-327.56
	729	7.3	7.28120E-001	1.84406E-001	0.00000E+000	7.29000E-001	-1.11221E-004	11	...........	0	-327.56
	732	7.33	7.31105E-001	1.82373E-001	0.00000E+000	7.32000E-001	-1.12888E-004	11	...........	0	-327.56
	735	7.36	7.34056E-001	1.80089E-001	0.00000E+000	7.35000E-001	-1.01221E-004	11	...........	0	-327.56
	738	7.39	7.37072E-001	1.78542E-001	0.00000E+000	7.38000E-001	-1.14555E-004	11	...........	0	-327.56
	741	7.42	7.40078E-001	1.76451E-001	0.00000E+000	7.41000E-001	-1.11221E-004	11	...........	0	-327.56
	744	7.45	7.43094E-001	1.74749E-001	0.00000E+000	7.44000E-001	-1.07888E-004	11	...........	0	-327.56
	747	7.48	7.46111E-001	1.73216E-001	0.00000E+000	7.47000E-001	-1.11221E-004	11	...........	0	-327.56
	750	7.51	7.49131E-001	1.71717E-001	0.00000E+000	7.50000E-001	-1.04555E-004	11	...........	0	-327.56
	753	7.54	7.52107E-001	1.70081E-001	0.00000E+000	7.53000E-001	-1.11221E-004	11	...........	0	-327.56
	756	7.57	7.55124E-001	1.68758E-001	0.00000E+000	7.56000E-001	-1.16221E-004	11	...........	0	-327.56
	759	7.6	7.58060E-001	1.67036E-001	0.00000E+000	7.59000E-001	-1.06221E-004	11	...........	0	-327.56
	762	7.63	7.61065E-001	1.65856E-001	0.00000E+000	7.62000E-001	-1.19555E-004	11	...........	0	-327.56
	765	7.66	7.64049E-001	1.64850E-001	0.00000E+000	7.65000E-001	-1.14555E-004	11	...........	0	-327.56
	768	7.69	7.67091E-001	1.63232E-001	0.00000E+000	7.68000E-001	-1.07888E-004	11	...........	0	-327.56
	771	7.72	7.70122E-001	1.62254E-001	0.00000E+000	7.71000E-001	-1.02888E-004	11	...........	0	-327.56
	774	7.75	7.73135E-001	1.60950E-001	0.00000E+000	7.74000E-001	-1.11221E-004	11	...........	0	-327.56
	777	7.78	7.76142E-001	1.59799E-001	0.00000E+000	7.77000E-001	-1.06221E-004	11	...........	0	-327.56
	780	7.81	7.79130E-001	1.59059E-001	0.00000E+000	7.80000E-001	-1.12888E-004	11	...........	0	-327.56
	783	7.84	7.82070E-001	1.57998E-001	0.00000E+000	7.83000E-001	-1.16221E-004	11	...........	0	-327.56
	786	7.87	7.85096E-001	1.56922E-001	0.00000E+000	7.86000E-001	-1.24555E-004	11	...........	0	-327.56
	789	7.9	7.88077E-001	1.56359E-001	0.00000E+000	7.89000E-001	-1.16221E-004	11	...........	0	-327.56
	792	7.93	7.91107E-001	1.55389E-001	0.00000E+000	7.92000E-001	-1.12888E-004	11	...........	0	-327.56
	795	7.96	7.94128E-001	1.54264E-001	0.00000E+000	7.95000E-001	-9.45548E-005	11	...........	0	-327.56
	798	7.99	7.97148E-001	1.53288E-001	0.00000E+000	7.98000E-001	-1.04555E-004	11	...........	0	-327.56
	801	8.02	8.00148E-001	1.52111E-001	0.00000E+000	8.01000E-001	-1.11221E-004	11	...........	0	-327.56
	804	8.05	8.03146E-001	1.51448E-001	0.00000E+000	8.04000E-001	-1.16221E-004	11	...........	0	-327.56
	807	8.08	8.06135E-001	1.50518E-001	0.00000E+000	8.07000E-001	-1.07888E-004	11	...........	0	-327.56
	810	8.11	8.09075E-001	1.49967E-001	0.00000E+000	8.10000E-001	-1.07888E-004	11	...........	0	-327.56
	813	8.14	8.12086E-001	1.48708E-001	0.00000E+000	8.13000E-001	-1.11221E-004	11	...........	0	-327.56
	816	8.17	8.15085E-001	1.48346E-001	0.00000E+000	8.16000E-001	-1.16221E-004	11	...........	0	-327.56
	819	8.2	8.18103E-001	1.47401E-001	0.00000E+000	8.19000E-001	-1.22888E-004	11	...........	0	-327.56
	822	8.23	8.21100E-001	1.46847E-001	0.00000E+000	8.22000E-001	-1.02888E-004	11	...........	0	-327.56
	825	8.26	8.24084E-001	1.45757E-001	0.00000E+000	8.25000E-001	-1.09555E-004	11	...........	0	-327.56
	828	8.29	8.27114E-001	1.45318E-001	0.00000E+000	8.28000E-001	-1.14555E-004	11	...........	0	-327.56
	831	8.32	8.30093E-001	1.44491E-001	0.00000E+000	8.31000E-001	-1.07888E-004	11	...........	0	-327.56
	834	8.35	8.33016E-001	1.43631E-001	0.00000E+000	8.34000E-001	-1.07888E-004	11	...........	0	-327.56
	837	8.38	8.36032E-001	1.43009E-001	0.00000E+000	8.37000E-001	-1.14555E-004	11	...........	0	-327.56
	840	8.41	8.39056E-001	1.42394E-001	0.00000E+000	8.40000E-001	-1.19555E-004	11	...........	0	-327.56
	843	8.44	8.42066E-001	1.41947E-001	0.00000E+000	8.43000E-001	-1.07888E-004	11	...........	0	-327.56
	846	8.47	8.45111E-001	1.41159E-001	0.00000E+000	8.46000E-001	-1.12888E-004	11	...........	0	-327.56
	849	8.5	8.48112E-001	1.40189E-001	0.00000E+000	8.49000E-001	-1.24555E-004	11	...........	0	-327.56
	852	8.53	8.51131E-001	1.39360E-001	0.00000E+000	8.52000E-001	-1.21221E-004	11	...........	0	-327.56
	855	8.56	8.54121E-001	1.39070E-001	0.00000E+000	8.55000E-001	-1.17888E-004	11	...........	0	-327.56
	858	8.59	8.57089E-001	1.38113E-001	0.00000E+000	8.58000E-001	-1.32888E-004	11	...........	0	-327.56
	861	8.62	8.60011E-001	1.37391E-001	0.00000E+000	8.61000E-001	-1.14555E-004	11	...........	0	-327.56
	864	8.65	8.63042E-001	1.36658E-001	0.00000E+000	8.64000E-001	-1.16221E-004	11	...........	0	-327.56
	867	8.68	8.66080E-001	1.35955E-001	0.00000E+000	8.67000E-001	-1.11221E-004	11	...........	0	-327.56
	870	8.71	8.69063E-001	1.35159E-001	0.00000E+000	8.70000E-001	-1.11221E-004	11	...........	0	-327.56
	873	8.74	8.72068E-001	1.34552E-001	0.00000E+000	8.73000E-001	-1.19555E-004	11	...........	0	-327.56
	876	8.77	8.75112E-001	1.34001E-001	0.00000E+000	8.76000E-001	-1.19555E-004	11	...........	0	-327.56
	879	8.8	8.78077E-001	1.33496E-001	0.00000E+000	8.79000E-001	-1.19555E-004	11	...........	0	-327.56
	882	8.83	8.81060E-001	1.32578E-001	0.00000E+000	8.82000E-001	-1.37888E-004	11	...........	0	-327.56
	885	8.86	8.83955E-001	1.31954E-001	0.00000E+000	8.85000E-001	-1.24555E-004	11	...........	0	-327.56
	888	8.89	8.87008E-001	1.31260E-001	0.00000E+000	8.88000E-001	-1.07888E-004	11	...........	0	-327.56
	891	8.92	8.90022E-001	1.30613E-001	0.00000E+000	8.91000E-001	-1.12888E-004	11	...........	0	-327.56
	894	8.95	8.93036E-001	1.30068E-001	0.00000E+000	8.94000E-001	-1.14555E-004	11	...........	0	-327.56
	897	8.98	8.96013E-001	1.29418E-001	0.00000E+000	8.97000E-001	-1.17888E-004	11	...........	0	-327.56
	900	9.01	8.99097E-001	1.28698E-001	0.00000E+000	9.00000E-001	-1.31221E-004	11	...........	0	-327.56
	903	9.04	9.02070E-001	1.28091E-001	0.00000E+000	9.03000E-001	-1.17888E-004	11	...........	0	-327.56
	906	9.07	9.05067E-001	1.27495E-001	0.00000E+000	9.06000E-001	-1.16221E-004	11	...........	0	-327.56
	909	9.1	9.08073E-001	1.26825E-001	0.00000E+000	9.09000E-001	-1.24555E-004	11	...........	0	-327.56
	912	9.13	9.10999E-001	1.26159E-001	0.00000E+000	9.12000E-001	-1.16221E-004	11	...........	0	-327.56
	915	9.16	9.14045E-001	1.25303E-001	0.00000E+000	9.15000E-001	-1.16221E-004	11	...........	0	-327.56
	918	9.19	9.17051E-001	1.24598E-001	0.00000E+000	9.18000E-001	-1.02888E-004	11	...........	0	-327.56
	921	9.22	9.20051E-001	1.24114E-001	0.00000E+000	9.21000E-001	-1.11221E-004	11	...........	0	-327.56
	924	9.25	9.23056E-001	1.23304E-001	0.00000E+000	9.24000E-001	-1.06221E-004	11	...........	0	-327.56
	927	9.28	9.26031E-001	1.22657E-001	0.00000E+000	9.27000E-001	-1.12888E-004	11	...........	0	-327.56
	930	9.31	9.29026E-001	1.22232E-001	0.00000E+000	9.30000E-001	-1.16221E-004	11	...........	0	-327.56
	933	9.34	9.32025E-001	1.21330E-001	0.00000E+000	9.33000E-001	-1.31221E-004	11	...........	0	-327.56
	936	9.37	9.34960E-001	1.21277E-001	0.00000E+000	9.36000E-001	-1.04555E-004	11	...........	0	-327.56
	939	9.4	9.37975E-001	1.20446E-001	0.00000E+000	9.39000E-001	-1.12888E-004	11	...........	0	-327.56
	942	9.43	9.40986E-001	1.19622E-001	0.00000E+000	9.42000E-001	-1.16221E-004	11	...........	0	-327.56
	945	9.46	9.43975E-001	1.19133E-001	0.00000E+000	9.45000E-001	-1.14555E-004	11	...........	0	-327.56
	948	9.49	9.47030E-001	1.18458E-001	0.00000E+000	9.48000E-001	-1.14555E-004	11	...........	0	-327.56
	951	9.52	9.50019E-001	1.18007E-001	0.00000E+000	9.51000E-001	-9.28881E-005	11	...........	0	-327.56
	954	9.55	9.53025E-001	1.17278E-001	0.00000E+000	9.54000E-001	-1.21221E-004	11	...........	0	-327.56
	957	9.58	9.56030E-001	1.16930E-001	0.00000E+000	9.57000E-001	-1.16221E-004	11	...........	0	-327.56
	960	9.61	9.59050E-001	1.16450E-001	0.00000E+000	9.60000E-001	-1.11221E-004	11	...........	0	-327.56
	963	9.64	9.61960E-001	1.15878E-001	0.00000E+000	9.63000E-001	-1.17888E-004	11	...........	0	-327.56
	966	9.67	9.64977E-001	1.15253E-001	0.00000E+000	9.66000E-001	-1.32888E-004	11	...........	0	-327.56
	969	9.7	9.67971E-001	1.14735E-001	0.00000E+000	9.69000E-001	-1.14555E-004	11	...........	0	-327.56
	972	9.73	9.71059E-001	1.14144E-001	0.00000E+000	9.72000E-001	-1.04555E-004	11	...........	0	-327.56
	975	9.76	9.74019E-001	1.13541E-001	0.00000E+000	9.75000E-001	-1.07888E-004	11	...........	0	-327.56
	978	9.79	9.77036E-001	1.13131E-001	0.00000E+000	9.78000E-001	-1.12888E-004	11	...........	0	-327.56
	981	9.82	9.80033E-001	1.12470E-001	0.00000E+000	9.81000E-001	-1.14555E-004	11	...........	0	-327.56
	984	9.85	9.83046E-001	1.12160E-001	0.00000E+000	9.84000E-001	-1.16221E-004	11	...........	0	-327.56
	987	9.88	9.85940E-001	1.11648E-001	0.00000E+000	9.87000E-001	-1.29555E-004	11	...........	0	-327.56
	990	9.91	9.88954E-001	1.11126E-001	0.00000E+000	9.90000E-001	-1.04555E-004	11	...........	0	-327.56
	993	9.94	9.91960E-001	1.10687E-001	0.00000E+000	9.93000E-001	-1.16221E-004	11	...........	0	-327.56
	996	9.97	9.95043E-001	1.10212E-001	0.00000E+000	9.96000E-001	-1.09555E-004	11	...........	0	-327.56
	999	10	9.97982E-001	1.09714E-001	0.00000E+000	9.99000E-001	-1.07888E-004	11	...........	0	-327.56
	1002	10.03	1.00102E+000	1.09229E-001	0.00000E+000	1.00200E+000	-1.16221E-004	11	...........	0	-327.56
	1005	10.06	1.00401E+000	1.08692E-001	0.00000E+000	1.00500E+000	-1.17888E-004	11	...........	0	-327.56
	1008	10.09	1.00704E+000	1.08243E-001	0.00000E+000	1.00800E+000	-1.32888E-004	11	...........	0	-327.56
	1011	10.12	1.01004E+000	1.07806E-001	0.00000E+000	1.01100E+000	-1.06221E-004	11	...........	0	-327.56
	1014	10.15	1.01291E+000	1.07492E-001	0.00000E+000	1.01400E+000	-1.11221E-004	11	...........	0	-327.56
	1017	10.18	1.01595E+000	1.06912E-001	0.00000E+000	1.01700E+000	-1.07888E-004	11	...........	0	-327.56
	1020	10.21	1.01904E+000	1.06722E-001	0.00000E+000	1.02000E+000	-1.21221E-004	11	...........	0	-327.56
	1023	10.24	1.02198E+000	1.06340E-001	0.00000E+000	1.02300E+000	-1.12888E-004	11	...........	0	-327.56
	1026	10.27	1.02498E+000	1.05963E-001	0.00000E+000	1.02600E+000	-1.17888E-004	11	...........	0	-327.56
	1029	10.3	1.02799E+000	1.05452E-001	0.00000E+000	1.02900E+000	-1.12888E-004	11	...........	0	-327.56
	1032	10.33	1.03102E+000	1.05043E-001	0.00000E+000	1.03200E+000	-1.21221E-004	11	...........	0	-327.56
	1035	10.36	1.03402E+000	1.04909E-001	0.00000E+000	1.03500E+000	-1.11221E-004	11	...........	0	-327.56
	1038	10.39	1.03695E+000	1.04469E-001	0.00000E+000	1.03800E+000	-1.12888E-004	11	...........	0	-327.56
	1041	10.42	1.03995E+000	1.04065E-001	0.00000E+000	1.04100E+000	-1.26221E-004	11	...........	0	-327.56
	1044	10.45	1.04301E+000	1.03619E-001	0.00000E+000	1.04400E+000	-9.95548E-005	11	...........	0	-327.56
	1047	10.48	1.04596E+000	1.03417E-001	0.00000E+000	1.04700E+000	-1.07888E-004	11	...........	0	-327.56
	1050	10.51	1.04895E+000	1.03295E-001	0.00000E+000	1.05000E+000	-1.17888E-004	11	...........	0	-327.56
	1053	10.54	1.05197E+000	1.02927E-001	0.00000E+000	1.05300E+000	-1.19555E-004	11	...........	0	-327.56
	1056	10.57	1.05499E+000	1.02638E-001	0.00000E+000	1.05600E+000	-1.14555E-004	11	...........	0	-327.56
	1059	10.6	1.05801E+000	1.02404E-001	0.00000E+000	1.05900E+000	-1.21221E-004	11	...........	0	-327.56
	1062	10.63	1.06099E+000	1.01964E-001	0.00000E+000	1.06200E+000	-1.09555E-004	11	...........	0	-327.56
	1065	10.66	1.06394E+000	1.01751E-001	0.00000E+000	1.06500E+000	-1.19555E-004	11	...........	0	-327.56
	1068	10.69	1.06700E+000	1.01426E-001	0.00000E+000	1.06800E+000	-1.06221E-004	11	...........	0	-327.56
	1071	10.72	1.06996E+000	1.01400E-001	0.00000E+000	1.07100E+000	-1.17888E-004	11	...........	0	-327.56
	1074	10.75	1.07295E+000	1.00976E-001	0.00000E+000	1.07400E+000	-1.06221E-004	11	...........	0	-327.56
	1077	10.78	1.07594E+000	1.00987E-001	0.00000E+000	1.07700E+000	-1.17888E-004	11	...........	0	-327.56
	1080	10.81	1.07898E+000	1.00676E-001	0.00000E+000	1.08000E+000	-1.16221E-004	11	...........	0	-327.56
	1083	10.84	1.08198E+000	1.00586E-001	0.00000E+000	1.08300E+000	-1.14555E-004	11	...........	0	-327.56
	1086	10.87	1.08499E+000	1.00553E-001	0.00000E+000	1.08600E+000	-1.21221E-004	11	...........	0	-327.56
	1089	10.9	1.08798E+000	1.00439E-001	0.00000E+000	1.08900E+000	-1.17888E-004	11	...........	0	-327.56
	1092	10.93	1.09100E+000	1.00416E-001	0.00000E+000	1.09200E+000	-1.16221E-004	11	...........	0	-327.56
	1095	10.96	1.09393E+000	1.00744E-001	0.00000E+000	1.09500E+000	-1.11221E-004	11	...........	0	-327.56
	1098	10.99	1.09692E+000	1.00383E-001	0.00000E+000	1.09800E+000	-1.26221E-004	11	...........	0	-327.56
	1101	11.02	1.09993E+000	1.00321E-001	0.00000E+000	1.10100E+000	-1.02888E-004	11	...........	0	-327.56
	1104	11.05	1.10297E+000	1.00159E-001	0.00000E+000	1.10400E+000	-1.04555E-004	11	...........	0	-327.56
	1107	11.08	1.10600E+000	1.00309E-001	0.00000E+000	1.10700E+000	-1.26221E-004	11	...........	0	-327.56
	1110	11.11	1.10899E+000	1.00160E-001	0.00000E+000	1.11000E+000	-1.14555E-004	11	...........	0	-327.56
	1113	11.14	1.11198E+000	1.00621E-001	0.00000E+000	1.11300E+000	-1.12888E-004	11	...........	0	-327.56
	1116	11.17	1.11491E+000	1.00674E-001	0.00000E+000	1.11600E+000	-9.95548E-005	11	...........	0	-327.56
	1119	11.2	1.11792E+000	1.00593E-001	0.00000E+000	1.11900E+000	-1.06221E-004	11	...........	0	-327.56
	1122	11.23	1.12090E+000	1.00773E-001	0.00000E+000	1.12200E+000	-1.11221E-004	11	...........	0	-327.56
	1125	11.26	1.12393E+000	1.01183E-001	0.00000E+000	1.12500E+000	-1.17888E-004	11	...........	0	-327.56
	1128	11.29	1.12690E+000	1.01323E-001	0.00000E+000	1.12800E+000	-1.04555E-004	11	...........	0	-327.56
	1131	11.32	1.12995E+000	1.01679E-001	0.00000E+000	1.13100E+000	-1.02888E-004	11	...........	0	-327.56
	1134	11.35	1.13294E+000	1.01732E-001	0.00000E+000	1.13400E+000	-1.14555E-004	11	...........	0	-327.56
	1137	11.38	1.13593E+000	1.01820E-001	0.00000E+000	1.13700E+000	-1.09555E-004	11	...........	0	-327.56
	1140	11.41	1.13889E+000	1.02052E-001	0.00000E+000	1.14000E+000	-1.07888E-004	11	...........	0	-327.56
	1143	11.44	1.14183E+000	1.02137E-001	0.00000E+000	1.14300E+000	-1.17888E-004	11	...........	0	-327.56
	1146	11.47	1.14481E+000	1.02765E-001	0.00000E+000	1.14600E+000	-1.09555E-004	11	...........	0	-327.56
	1149	11.5	1.14785E+000	1.02979E-001	0.00000E+000	1.14900E+000	-1.14555E-004	11	...........	0	-327.56
	1152	11.53	1.15086E+000	1.03309E-001	0.00000E+000	1.15200E+000	-1.07888E-004	11	...........	0	-327.56
	1155	11.56	1.15389E+000	1.03472E-001	0.00000E+000	1.15500E+000	-1.24555E-004	11	...........	0	-327.56
	1158	11.59	1.15690E+000	1.03660E-001	0.00000E+000	1.15800E+000	-1.04555E-004	11	...........	0	-327.56
	1161	11.62	1.15990E+000	1.04380E-001	0.00000E+000	1.16100E+000	-1.21221E-004	11	...........	0	-327.56
	1164	11.65	1.16289E+000	1.04317E-001	0.00000E+000	1.16400E+000	-1.09555E-004	11	...........	0	-327.56
	1167	11.68	1.16578E+000	1.04611E-001	0.00000E+000	1.16700E+000	-1.07888E-004	11	...........	0	-327.56
	1170	11.71	1.16882E+000	1.04999E-001	0.00000E+000	1.17000E+000	-1.19555E-004	11	...........	0	-327.56
	1173	11.74	1.17184E+000	1.05471E-001	0.00000E+000	1.17300E+000	-1.09555E-004	11	...........	0	-327.56
	1176	11.77	1.17485E+000	1.05533E-001	0.00000E+000	1.17600E+000	-1.14555E-004	11	...........	0	-327.56
	1179	11.8	1.17786E+000	1.06110E-001	0.00000E+000	1.17900E+000	-1.21221E-004	11	...........	0	-327.56
	1182	11.83	1.18089E+000	1.06339E-001	0.00000E+000	1.18200E+000	-1.19555E-004	11	...........	0	-327.56
	1185	11.86	1.18390E+000	1.06800E-001	0.00000E+000	1.18500E+000	-1.11221E-004	11	...........	0	-327.56
	1188	11.89	1.18689E+000	1.07186E-001	0.00000E+000	1.18800E+000	-1.01221E-004	11	...........	0	-327.56
	1191	11.92	1.18986E+000	1.07643E-001	0.00000E+000	1.19100E+000	-1.17888E-004	11	...........	0	-327.56
	1194	11.95	1.19278E+000	1.07682E-001	0.00000E+000	1.19400E+000	-1.17888E-004	11	...........	0	-327.56
	1197	11.98	1.19583E+000	1.08274E-001	0.00000E+000	1.19700E+000	-1.07888E-004	11	...........	0	-327.56
	1200	12.01	1.19884E+000	1.08630E-001	0.00000E+000	1.20000E+000	-1.24555E-004	11	...........	0	-327.56
	1203	12.04	1.20183E+000	1.08936E-001	0.00000E+000	1.20300E+000	-1.24555E-004	11	...........	0	-327.56
	1206	12.07	1.20486E+000	1.09082E-001	0.00000E+000	1.20600E+000	-1.11221E-004	11	...........	0	-327.56
	1209	12.1	1.20788E+000	1.09404E-001	0.00000E+000	1.20900E+000	-1.12888E-004	11	...........	0	-327.56
	1212	12.13	1.21085E+000	1.09836E-001	0.00000E+000	1.21200E+000	-1.04555E-004	11	...........	0	-327.56
	1215	12.16	1.21384E+000	1.10218E-001	0.00000E+000	1.21500E+000	-1.31221E-004	11	...........	0	-327.56
	1218	12.19	1.21672E+000	1.10679E-001	0.00000E+000	1.21800E+000	-9.95548E-005	11	...........	0	-327.56
	1221	12.22	1.21979E+000	1.11250E-001	0.00000E+000	1.22100E+000	-1.12888E-004	11	...........	0	-327.56
	1224	12.25	1.22282E+000	1.11802E-001	0.00000E+000	1.22400E+000	-1.09555E-004	11	...........	0	-327.56
	1227	12.28	1.22582E+000	1.12086E-001	0.00000E+000	1.22700E+000	-1.19555E-004	11	...........	0	-327.56
	1230	12.31	1.22879E+000	1.12341E-001	0.00000E+000	1.23000E+000	-1.12888E-004	11	...........	0	-327.56
	1233	12.34	1.23190E+000	1.12843E-001	0.00000E+000	1.23300E+000	-1.19555E-004	11	...........	0	-327.56
	1236	12.37	1.23485E+000	1.13174E-001	0.00000E+000	1.23600E+000	-1.06221E-004	11	...........	0	-327.56
	1239	12.4	1.23784E+000	1.13709E-001	0.00000E+000	1.23900E+000	-1.16221E-004	11	...........	0	-327.56
	1242	12.43	1.24083E+000	1.14093E-001	0.00000E+000	1.24200E+000	-1.12888E-004	11	...........	0	-327.56
	1245	12.46	1.24376E+000	1.14582E-001	0.00000E+000	1.24500E+000	-1.32888E-004	11	...........	0	-327.56
	1248	12.49	1.24679E+000	1.15145E-001	0.00000E+000	1.24800E+000	-1.22888E-004	11	...........	0	-327.56
	1251	12.52	1.24981E+000	1.15628E-001	0.00000E+000	1.25100E+000	-1.06221E-004	11	...........	0	-327.56
	1254	12.55	1.25279E+000	1.16427E-001	0.00000E+000	1.25400E+000	-1.16221E-004	11	...........	0	-327.56
	1257	12.58	1.25587E+000	1.16911E-001	0.00000E+000	1.25700E+000	-1.17888E-004	11	...........	0	-327.56
	1260	12.61	1.25881E+000	1.17374E-001	0.00000E+000	1.26000E+000	-1.16221E-004	11	...........	0	-327.56
	1263	12.64	1.26183E+000	1.18002E-001	0.00000E+000	1.26300E+000	-1.14555E-004	11	...........	0	-327.56
	1266	12.67	1.26483E+000	1.18509E-001	0.00000E+000	1.26600E+000	-9.62214E-005	11	...........	0	-327.56
	1269	12.7	1.26775E+000	1.19325E-001	0.00000E+000	1.26900E+000	-1.19555E-004	11	...........	0	-327.56
	1272	12.73	1.27077E+000	1.19950E-001	0.00000E+000	1.27200E+000	-1.14555E-004	11	...........	0	-327.56
	1275	12.76	1.27377E+000	1.20423E-001	0.00000E+000	1.27500E+000	-1.17888E-004	11	...........	0	-327.56
	1278	12.79	1.27677E+000	1.21185E-001	0.00000E+000	1.27800E+000	-1.14555E-004	11	...........	0	-327.56
	1281	12.82	1.27983E+000	1.22110E-001	0.00000E+000	1.28100E+000	-1.06221E-004	11	...........	0	-327.56
	1284	12.85	1.28281E+000	1.23155E-001	0.00000E+000	1.28400E+000	-1.11221E-004	11	...........	0	-327.56
	1287	12.88	1.28583E+000	1.23945E-001	0.00000E+000	1.28700E+000	-1.22888E-004	11	...........	0	-327.56
	1290	12.91	1.28883E+000	1.24918E-001	0.00000E+000	1.29000E+000	-1.31221E-004	11	...........	0	-327.56
	1293	12.94	1.29180E+000	1.25845E-001	0.00000E+000	1.29300E+000	-1.11221E-004	11	...........	0	-327.56
	1296	12.97	1.29474E+000	1.26874E-001	0.00000E+000	1.29600E+000	-1.21221E-004	11	...........	0	-327.56
	1299	13	1.29771E+000	1.27979E-001	0.00000E+000	1.29900E+000	-1.06221E-004	11	...........	0	-327.56
	1300	13.01	1.29874E+000	1.28381E-001	0.00000E+000	1.30000E+000	-1.12888E-004	11	...........	0	-327.56