File: testing/data/240902_01b_MCL13_cswWE_CV20_initial_test.DTA
EXPLAIN
TAG	CV
TITLE	LABEL	Cyclic Voltammetry	Test &Identifier
DATE	LABEL	9/2/2024	Date
TIME	LABEL	15:45:16	Time
NOTES	NOTES	5	&Notes...

	WE: Ag wire
	RE: Ni/NiO
	CE: steel swirl
PSTAT	PSTAT	REF3000-48128	Potentiostat
VINIT	POTEN	0.00000E+000	F	Initial &E (V)
VLIMIT1	POTEN	1.70000E+000	F	Scan Limit &1 (V)
VLIMIT2	POTEN	-1.00000E+000	F	Scan Limit &2 (V)
VFINAL	POTEN	1.70000E+000	F	Final &E (V)
SCANRATE	QUANT	2.00000E+001	&Scan Rate (mV/s)
STEPSIZE	QUANT	1.00000E+000	St&ep Size (mV)
CYCLES	IQUANT	2	C&ycles (#)
IMODE	SELECTOR	0	I/E Range &Mode
IRANGE	QUANT	5.00000E+001	&Max Current (mA)
AREA	QUANT	1.00000E+000	Electrode &Area (cm^2)
ELECTRODETYPE	SELECTOR	1	Electrode Type
STRIPPING	TOGGLE	F	Used for Stripping
CONDIT	TWOPARAM	F	1.50000E+001	0.00000E+000	Conditionin&g	Time(s)	E(V)
DELAY	TWOPARAM	F	3.00000E+001	0.00000E+000	Init. De&lay	Time(s)	Stab.(mV/s)
EQDELAY	QUANT	0.00000E+000	Equil. &Time (s)
IRCOMP	SELECTOR	0	IRCom&p
PFCOR	QUANT	5.00000E+001	PF Corr. (ohm)
SAMPLINGMODE	SELECTOR	1	Sampling &Mode
EOC	QUANT	0	Open Circuit (V)
PSTATMODEL	IQUANT	5	Pstat Model
PSTATSECTION	LABEL	REF3000-48128	Pstat Section
PSTATSERIALNO	LABEL	48128	Pstat Serial Number
CTRLMODE	IQUANT	1	Control Mode
ELECTROMETER	IQUANT	0	RE=0 or CS=1
IESTAB	IQUANT	2	I/E Stability
CASPEED	IQUANT	4	Control Amp Speed
CONVENTION	IQUANT	1	Current Convention
ICHRANGE	IQUANT	2	Ich Range
ICHRANGEMODE	TOGGLE	F	Ich Auto Range
ICHOFFSETENABLE	TOGGLE	F	Ich Offset Enable
ICHOFFSET	QUANT	0	Ich Offset (V)
ICHFILTER	IQUANT	2	Ich Filter
VCHRANGE	IQUANT	3	Vch Range
VCHRANGEMODE	TOGGLE	T	Vch Auto Range
VCHOFFSETENABLE	TOGGLE	F	Vch Offset Enable
VCHOFFSET	QUANT	0	Vch Offset (V)
VCHFILTER	IQUANT	1	Vch Filter
ACHRANGE	IQUANT	2	Ach Range
ACHOFFSETENABLE	TOGGLE	F	Ach Offset Enable
ACHOFFSET	QUANT	0	Ach Offset (V)
ACHFILTER	IQUANT	1	Ach Filter
IERANGELOWERLIMIT	IQUANT	2	I/E Range Lower Limit
IERANGEMODE	TOGGLE	T	I/E AutoRange
IERANGE	IQUANT	11	I/E Range
POSFEEDENABLE	TOGGLE	F	Positive Feedback IR Comp
POSFEEDRESISTANCE	QUANT	0	Positive Feedback Resistance (ohm)
ACHSELECT	IQUANT	1	Ach Select
SENSECABLEID	IQUANT	14	Sense Cable ID
PWRCABLEID	IQUANT	7	Power Cable ID
DCCALDATE	LABEL	8/16/2024	DC Calibration Date
ACCALDATE	LABEL	8/16/2024	AC Calibration Date
THERMOSELECT	IQUANT	1	Thermo Select
FRAMEWORKVERSION	LABEL	7.10.3	Framework Version
INSTRUMENTVERSION	LABEL	4.91	Instrument Version
COMMVERSION	LABEL	5.10	Communications Version
CPUPLDVERSION	LABEL	6.00	CPU PLD Version
CTRLPLDVERSION	LABEL	3.21	CTRL PLD Version
PSTATPLDVERSION	LABEL	0.00	PSTAT PLD Version
COMPLIANCEVOLTAGE	IQUANT	0	Compliance Voltage
CURVE1	TABLE
	Pt	T	Vf	Im	Vu	Sig	Ach	IERange	Over	Temp
	#	s	V vs. Ref.	A	V	V	V	#	bits	deg C
	0	0.05	8.09814E-004	1.28569E-002	0.00000E+000	2.98023E-008	-2.67555E-003	11	...........	-327.56
	9	0.5	9.40574E-003	7.09144E-003	0.00000E+000	9.00003E-003	-2.67889E-003	10	...........	-327.56
	18	0.95	1.84385E-002	4.08070E-003	0.00000E+000	1.80000E-002	-2.68322E-003	10	...........	-327.56
	27	1.4	2.73940E-002	6.21268E-003	0.00000E+000	2.70000E-002	-2.67622E-003	10	...........	-327.56
	36	1.85	3.63535E-002	6.54714E-003	0.00000E+000	3.60000E-002	-2.69655E-003	10	...........	-327.56
	45	2.3	4.53591E-002	5.38866E-003	0.00000E+000	4.50000E-002	-2.67489E-003	10	...........	-327.56
	54	2.75	5.43463E-002	5.73915E-003	0.00000E+000	5.40000E-002	-2.69489E-003	10	...........	-327.56
	63	3.2	6.31774E-002	1.76060E-002	0.00000E+000	6.30000E-002	-2.69289E-003	10	...........	-327.56
	72	3.65	7.21454E-002	1.92958E-002	0.00000E+000	7.20000E-002	-2.68622E-003	10	...........	-327.56
	81	4.1	8.12396E-002	1.08495E-002	0.00000E+000	8.10000E-002	-2.68455E-003	10	...........	-327.56
	90	4.55	9.01924E-002	1.44482E-002	0.00000E+000	9.00000E-002	-2.69189E-003	10	...........	-327.56
	99	5	9.92374E-002	1.04588E-002	0.00000E+000	9.90000E-002	-2.68389E-003	10	...........	-327.56
	108	5.45	1.08166E-001	1.57301E-002	0.00000E+000	1.08000E-001	-2.69122E-003	10	...........	-327.56
	117	5.9	1.17082E-001	2.16968E-002	0.00000E+000	1.17000E-001	-2.67889E-003	10	...........	-327.56
	126	6.35	1.26091E-001	2.00158E-002	0.00000E+000	1.26000E-001	-2.68922E-003	10	...........	-327.56
	135	6.8	1.35078E-001	1.85386E-002	0.00000E+000	1.35000E-001	-2.67989E-003	10	...........	-327.56
	144	7.25	1.43971E-001	2.61346E-002	0.00000E+000	1.44000E-001	-2.68689E-003	10	...........	-327.56
	153	7.7	1.52984E-001	2.43433E-002	0.00000E+000	1.53000E-001	-2.68822E-003	10	...........	-327.56
	162	8.15	1.62516E-001	2.74875E-002	0.00000E+000	1.62000E-001	-2.69122E-003	11	...........	-327.56
	171	8.6	1.71030E-001	2.05591E-002	0.00000E+000	1.71000E-001	-2.68422E-003	10	...........	-327.56
	180	9.05	1.80006E-001	2.15775E-002	0.00000E+000	1.80000E-001	-2.68755E-003	10	...........	-327.56
	189	9.5	1.89479E-001	2.54063E-002	0.00000E+000	1.89000E-001	-2.69389E-003	11	...........	-327.56
	198	9.95	1.98465E-001	2.98259E-002	0.00000E+000	1.98000E-001	-2.68555E-003	11	...........	-327.56
	207	10.4	2.07384E-001	4.56546E-002	0.00000E+000	2.07000E-001	-2.67855E-003	11	...........	-327.56
	216	10.85	2.16430E-001	3.14388E-002	0.00000E+000	2.16000E-001	-2.69022E-003	11	...........	-327.56
	225	11.3	2.25413E-001	3.58686E-002	0.00000E+000	2.25000E-001	-2.69122E-003	11	...........	-327.56
	234	11.75	2.34327E-001	5.12668E-002	0.00000E+000	2.34000E-001	-2.67822E-003	11	...........	-327.56
	243	12.2	2.43354E-001	4.36031E-002	0.00000E+000	2.43000E-001	-2.68989E-003	11	...........	-327.56
	252	12.65	2.52299E-001	5.16564E-002	0.00000E+000	2.52000E-001	-2.68922E-003	11	...........	-327.56
	261	13.1	2.61232E-001	5.94044E-002	0.00000E+000	2.61000E-001	-2.68655E-003	11	...........	-327.56
	270	13.55	2.69906E-001	7.52778E-002	0.00000E+000	2.70000E-001	-2.69155E-003	11	...........	-327.56
	279	14	2.78998E-001	6.98359E-002	0.00000E+000	2.79000E-001	-2.69322E-003	11	...........	-327.56
	288	14.45	2.88122E-001	5.95790E-002	0.00000E+000	2.88000E-001	-2.68222E-003	11	...........	-327.56
	297	14.9	2.97039E-001	6.04608E-002	0.00000E+000	2.97000E-001	-2.69322E-003	11	...........	-327.56
	306	15.35	3.06049E-001	6.21345E-002	0.00000E+000	3.06000E-001	-2.68755E-003	11	...........	-327.56
	315	15.8	3.14952E-001	7.29353E-002	0.00000E+000	3.15000E-001	-2.69155E-003	11	...........	-327.56
	324	16.25	3.23871E-001	7.47691E-002	0.00000E+000	3.24000E-001	-2.68355E-003	11	...........	-327.56
	333	16.7	3.32828E-001	8.44215E-002	0.00000E+000	3.33000E-001	-2.68589E-003	11	...........	-327.56
	342	17.15	3.41798E-001	9.56842E-002	0.00000E+000	3.42000E-001	-2.68155E-003	11	...........	-327.56
	351	17.6	3.50758E-001	8.53767E-002	0.00000E+000	3.51000E-001	-2.68522E-003	11	...........	-327.56
	360	18.05	3.59745E-001	9.46909E-002	0.00000E+000	3.60000E-001	-2.69622E-003	11	...........	-327.56
	369	18.5	3.68758E-001	9.75639E-002	0.00000E+000	3.69000E-001	-2.68622E-003	11	...........	-327.56
	378	18.95	3.77708E-001	1.04899E-001	0.00000E+000	3.78000E-001	-2.68322E-003	11	...........	-327.56
	387	19.4	3.86679E-001	1.08574E-001	0.00000E+000	3.87000E-001	-2.68089E-003	11	...........	-327.56
	396	19.85	3.95660E-001	1.19266E-001	0.00000E+000	3.96000E-001	-2.69189E-003	11	...........	-327.56
	405	20.3	4.04568E-001	1.30474E-001	0.00000E+000	4.05000E-001	-2.67889E-003	11	...........	-327.56
	414	20.75	4.13606E-001	1.32647E-001	0.00000E+000	4.14000E-001	-2.68555E-003	11	...........	-327.56
	423	21.2	4.22608E-001	1.43690E-001	0.00000E+000	4.23000E-001	-2.67489E-003	11	...........	-327.56
	432	21.65	4.31525E-001	1.51848E-001	0.00000E+000	4.32000E-001	-2.68089E-003	11	...........	-327.56
	441	22.1	4.40538E-001	1.60811E-001	0.00000E+000	4.41000E-001	-2.67655E-003	11	...........	-327.56
	450	22.55	4.49430E-001	1.63160E-001	0.00000E+000	4.50000E-001	-2.66589E-003	11	...........	-327.56
	459	23	4.58475E-001	1.62728E-001	0.00000E+000	4.59000E-001	-2.69155E-003	11	...........	-327.56
	468	23.45	4.67498E-001	1.60093E-001	0.00000E+000	4.68000E-001	-2.68755E-003	11	...........	-327.56
	477	23.9	4.76453E-001	1.46692E-001	0.00000E+000	4.77000E-001	-2.68022E-003	11	...........	-327.56
	486	24.35	4.85509E-001	1.41728E-001	0.00000E+000	4.86000E-001	-2.65589E-003	11	...........	-327.56
	495	24.8	4.94581E-001	1.28101E-001	0.00000E+000	4.95000E-001	-2.68155E-003	11	...........	-327.56
	504	25.25	5.03536E-001	1.17587E-001	0.00000E+000	5.04000E-001	-2.68022E-003	11	...........	-327.56
	513	25.7	5.12551E-001	1.11484E-001	0.00000E+000	5.13000E-001	-2.67989E-003	11	...........	-327.56
	522	26.15	5.21611E-001	9.93804E-002	0.00000E+000	5.22000E-001	-2.68289E-003	11	...........	-327.56
	531	26.6	5.30609E-001	9.18834E-002	0.00000E+000	5.31000E-001	-2.67222E-003	11	...........	-327.56
	540	27.05	5.39674E-001	8.44658E-002	0.00000E+000	5.40000E-001	-2.67955E-003	11	...........	-327.56
	549	27.5	5.48729E-001	7.98356E-002	0.00000E+000	5.49000E-001	-2.67722E-003	11	...........	-327.56
	558	27.95	5.57684E-001	7.69304E-002	0.00000E+000	5.58000E-001	-2.67855E-003	11	...........	-327.56
	567	28.4	5.66746E-001	7.03366E-002	0.00000E+000	5.67000E-001	-2.68222E-003	11	...........	-327.56
	576	28.85	5.75786E-001	6.74449E-002	0.00000E+000	5.76000E-001	-2.67555E-003	11	...........	-327.56
	585	29.3	5.84779E-001	6.27862E-002	0.00000E+000	5.85000E-001	-2.67189E-003	11	...........	-327.56
	594	29.75	5.93851E-001	5.99436E-002	0.00000E+000	5.94000E-001	-2.66789E-003	11	...........	-327.56
	603	30.2	6.02775E-001	5.78143E-002	0.00000E+000	6.03000E-001	-2.67422E-003	11	...........	-327.56
	612	30.65	6.11831E-001	5.46732E-002	0.00000E+000	6.12000E-001	-2.68055E-003	11	...........	-327.56
	621	31.1	6.20855E-001	5.29088E-002	0.00000E+000	6.21000E-001	-2.67689E-003	11	...........	-327.56
	630	31.55	6.29804E-001	5.11329E-002	0.00000E+000	6.30000E-001	-2.67922E-003	11	...........	-327.56
	639	32	6.38821E-001	4.96469E-002	0.00000E+000	6.39000E-001	-2.67455E-003	11	...........	-327.56
	648	32.45	6.47871E-001	4.81877E-002	0.00000E+000	6.48000E-001	-2.67755E-003	11	...........	-327.56
	657	32.9	6.56821E-001	4.66039E-002	0.00000E+000	6.57000E-001	-2.67055E-003	11	...........	-327.56
	666	33.35	6.65854E-001	4.49914E-002	0.00000E+000	6.66000E-001	-2.67855E-003	11	...........	-327.56
	675	33.8	6.74876E-001	4.47428E-002	0.00000E+000	6.75000E-001	-2.67889E-003	11	...........	-327.56
	684	34.25	6.83813E-001	4.31067E-002	0.00000E+000	6.84000E-001	-2.67389E-003	11	...........	-327.56
	693	34.7	6.92881E-001	4.21060E-002	0.00000E+000	6.93000E-001	-2.66622E-003	11	...........	-327.56
	702	35.15	7.01876E-001	4.15379E-002	0.00000E+000	7.02000E-001	-2.66922E-003	11	...........	-327.56
	711	35.6	7.10808E-001	4.06374E-002	0.00000E+000	7.11000E-001	-2.67022E-003	11	...........	-327.56
	720	36.05	7.19804E-001	4.07015E-002	0.00000E+000	7.20000E-001	-2.68389E-003	11	...........	-327.56
	729	36.5	7.28833E-001	3.94536E-002	0.00000E+000	7.29000E-001	-2.67422E-003	11	...........	-327.56
	738	36.95	7.37815E-001	3.90940E-002	0.00000E+000	7.38000E-001	-2.66989E-003	11	...........	-327.56
	747	37.4	7.46817E-001	3.85588E-002	0.00000E+000	7.47000E-001	-2.67155E-003	11	...........	-327.56
	756	37.85	7.55721E-001	3.80960E-002	0.00000E+000	7.56000E-001	-2.66922E-003	11	...........	-327.56
	765	38.3	7.64773E-001	3.77737E-002	0.00000E+000	7.65000E-001	-2.67422E-003	11	...........	-327.56
	774	38.75	7.73796E-001	3.79604E-002	0.00000E+000	7.74000E-001	-2.67455E-003	11	...........	-327.56
	783	39.2	7.82688E-001	3.71446E-002	0.00000E+000	7.83000E-001	-2.67055E-003	11	...........	-327.56
	792	39.65	7.91749E-001	3.70251E-002	0.00000E+000	7.92000E-001	-2.67922E-003	11	...........	-327.56
	801	40.1	8.00789E-001	3.70010E-002	0.00000E+000	8.01000E-001	-2.66722E-003	11	...........	-327.56
	810	40.55	8.09770E-001	3.68111E-002	0.00000E+000	8.10000E-001	-2.68222E-003	11	...........	-327.56
	819	41	8.18746E-001	3.64092E-002	0.00000E+000	8.19000E-001	-2.67755E-003	11	...........	-327.56
	828	41.45	8.27734E-001	3.64780E-002	0.00000E+000	8.28000E-001	-2.66089E-003	11	...........	-327.56
	837	41.9	8.36671E-001	3.64093E-002	0.00000E+000	8.37000E-001	-2.68822E-003	11	...........	-327.56
	846	42.35	8.45701E-001	3.64245E-002	0.00000E+000	8.46000E-001	-2.67622E-003	11	...........	-327.56
	855	42.8	8.54718E-001	3.65805E-002	0.00000E+000	8.55000E-001	-2.68155E-003	11	...........	-327.56
	864	43.25	8.63647E-001	3.67903E-002	0.00000E+000	8.64000E-001	-2.67922E-003	11	...........	-327.56
	873	43.7	8.72689E-001	3.68925E-002	0.00000E+000	8.73000E-001	-2.67589E-003	11	...........	-327.56
	882	44.15	8.81706E-001	3.71006E-002	0.00000E+000	8.82000E-001	-2.67855E-003	11	...........	-327.56
	891	44.6	8.90647E-001	3.74743E-002	0.00000E+000	8.91000E-001	-2.67489E-003	11	...........	-327.56
	900	45.05	8.99668E-001	3.78129E-002	0.00000E+000	9.00000E-001	-2.67789E-003	11	...........	-327.56
	909	45.5	9.08677E-001	3.84210E-002	0.00000E+000	9.09000E-001	-2.66522E-003	11	...........	-327.56
	918	45.95	9.17629E-001	3.87200E-002	0.00000E+000	9.18000E-001	-2.67922E-003	11	...........	-327.56
	927	46.4	9.26625E-001	3.92384E-002	0.00000E+000	9.27000E-001	-2.67489E-003	11	...........	-327.56
	936	46.85	9.35538E-001	4.01067E-002	0.00000E+000	9.36000E-001	-2.67689E-003	11	...........	-327.56
	945	47.3	9.44561E-001	4.10926E-002	0.00000E+000	9.45000E-001	-2.67322E-003	11	...........	-327.56
	954	47.75	9.53586E-001	4.17082E-002	0.00000E+000	9.54000E-001	-2.68689E-003	11	...........	-327.56
	963	48.2	9.62510E-001	4.33410E-002	0.00000E+000	9.63000E-001	-2.67655E-003	11	...........	-327.56
	972	48.65	9.71515E-001	4.47349E-002	0.00000E+000	9.72000E-001	-2.67289E-003	11	...........	-327.56
	981	49.1	9.80554E-001	4.58140E-002	0.00000E+000	9.81000E-001	-2.66855E-003	11	...........	-327.56
	990	49.55	9.89467E-001	4.80068E-002	0.00000E+000	9.90000E-001	-2.68789E-003	11	...........	-327.56
	999	50	9.98519E-001	4.85034E-002	0.00000E+000	9.99000E-001	-2.67522E-003	11	...........	-327.56
	1008	50.45	1.00751E+000	4.98780E-002	0.00000E+000	1.00800E+000	-2.67922E-003	11	...........	-327.56
	1017	50.9	1.01644E+000	5.13149E-002	0.00000E+000	1.01700E+000	-2.66922E-003	11	...........	-327.56
	1026	51.35	1.02543E+000	5.27463E-002	0.00000E+000	1.02600E+000	-2.66955E-003	11	...........	-327.56
	1035	51.8	1.03446E+000	5.45023E-002	0.00000E+000	1.03500E+000	-2.67855E-003	11	...........	-327.56
	1044	52.25	1.04342E+000	5.57435E-002	0.00000E+000	1.04400E+000	-2.67822E-003	11	...........	-327.56
	1053	52.7	1.05241E+000	5.72595E-002	0.00000E+000	1.05300E+000	-2.67355E-003	11	...........	-327.56
	1062	53.15	1.06141E+000	5.88506E-002	0.00000E+000	1.06200E+000	-2.67255E-003	11	...........	-327.56
	1071	53.6	1.07036E+000	6.03687E-002	0.00000E+000	1.07100E+000	-2.67755E-003	11	...........	-327.56
	1080	54.05	1.07936E+000	6.20018E-002	0.00000E+000	1.08000E+000	-2.67555E-003	11	...........	-327.56
	1089	54.5	1.08832E+000	6.35553E-002	0.00000E+000	1.08900E+000	-2.66255E-003	11	...........	-327.56
	1098	54.95	1.09728E+000	6.50683E-002	0.00000E+000	1.09800E+000	-2.66055E-003	11	...........	-327.56
	1107	55.4	1.10629E+000	6.65068E-002	0.00000E+000	1.10700E+000	-2.68289E-003	11	...........	-327.56
	1116	55.85	1.11525E+000	6.99211E-002	0.00000E+000	1.11600E+000	-2.67555E-003	11	...........	-327.56
	1125	56.3	1.12423E+000	7.04911E-002	0.00000E+000	1.12500E+000	-2.67389E-003	11	...........	-327.56
	1134	56.75	1.13320E+000	7.08362E-002	0.00000E+000	1.13400E+000	-2.68189E-003	11	...........	-327.56
	1143	57.2	1.14211E+000	7.27671E-002	0.00000E+000	1.14300E+000	-2.67355E-003	11	...........	-327.56
	1152	57.65	1.15114E+000	7.33726E-002	0.00000E+000	1.15200E+000	-2.68722E-003	11	...........	-327.56
	1161	58.1	1.16018E+000	7.42059E-002	0.00000E+000	1.16100E+000	-2.67455E-003	11	...........	-327.56
	1170	58.55	1.16909E+000	7.51944E-002	0.00000E+000	1.17000E+000	-2.67155E-003	11	...........	-327.56
	1179	59	1.17809E+000	7.61684E-002	0.00000E+000	1.17900E+000	-2.66689E-003	11	...........	-327.56
	1188	59.45	1.18711E+000	7.73307E-002	0.00000E+000	1.18800E+000	-2.67089E-003	11	...........	-327.56
	1197	59.9	1.19605E+000	7.88744E-002	0.00000E+000	1.19700E+000	-2.67789E-003	11	...........	-327.56
	1206	60.35	1.20507E+000	8.07224E-002	0.00000E+000	1.20600E+000	-2.66522E-003	11	...........	-327.56
	1215	60.8	1.21409E+000	8.19132E-002	0.00000E+000	1.21500E+000	-2.67289E-003	11	...........	-327.56
	1224	61.25	1.22301E+000	8.34351E-002	0.00000E+000	1.22400E+000	-2.67022E-003	11	...........	-327.56
	1233	61.7	1.23204E+000	8.54745E-002	0.00000E+000	1.23300E+000	-2.67955E-003	11	...........	-327.56
	1242	62.15	1.24102E+000	8.84364E-002	0.00000E+000	1.24200E+000	-2.67322E-003	11	...........	-327.56
	1251	62.6	1.24995E+000	9.08183E-002	0.00000E+000	1.25100E+000	-2.68389E-003	11	...........	-327.56
	1260	63.05	1.25896E+000	9.46377E-002	0.00000E+000	1.26000E+000	-2.67622E-003	11	...........	-327.56
	1269	63.5	1.26785E+000	9.81495E-002	0.00000E+000	1.26900E+000	-2.67622E-003	11	...........	-327.56
	1278	63.95	1.27693E+000	1.02116E-001	0.00000E+000	1.27800E+000	-2.67422E-003	11	...........	-327.56
	1287	64.4	1.28590E+000	1.07508E-001	0.00000E+000	1.28700E+000	-2.67589E-003	11	...........	-327.56
	1296	64.85	1.29478E+000	1.13099E-001	0.00000E+000	1.29600E+000	-2.67755E-003	11	...........	-327.56
	1305	65.3	1.30380E+000	1.21069E-001	0.00000E+000	1.30500E+000	-2.67122E-003	11	...........	-327.56
	1314	65.75	1.31281E+000	1.28810E-001	0.00000E+000	1.31400E+000	-2.67655E-003	11	...........	-327.56
	1323	66.2	1.32178E+000	1.38146E-001	0.00000E+000	1.32300E+000	-2.67089E-003	11	...........	-327.56
	1332	66.65	1.33072E+000	1.48972E-001	0.00000E+000	1.33200E+000	-2.66689E-003	11	...........	-327.56
	1341	67.1	1.33968E+000	1.61920E-001	0.00000E+000	1.34100E+000	-2.66222E-003	11	...........	-327.56
	1350	67.55	1.34857E+000	1.74541E-001	0.00000E+000	1.35000E+000	-2.67689E-003	11	...........	-327.56
	1359	68	1.35757E+000	1.87783E-001	0.00000E+000	1.35900E+000	-2.67322E-003	11	...........	-327.56
	1368	68.45	1.36659E+000	2.02931E-001	0.00000E+000	1.36800E+000	-2.67655E-003	11	...........	-327.56
	1377	68.9	1.37548E+000	2.18420E-001	0.00000E+000	1.37700E+000	-2.67589E-003	11	...........	-327.56
	1386	69.35	1.38446E+000	2.35906E-001	0.00000E+000	1.38600E+000	-2.67422E-003	11	...........	-327.56
	1395	69.8	1.39344E+000	2.52124E-001	0.00000E+000	1.39500E+000	-2.68122E-003	11	...........	-327.56
	1404	70.25	1.40235E+000	2.69180E-001	0.00000E+000	1.40400E+000	-2.67555E-003	11	...........	-327.56
	1413	70.7	1.41169E+000	2.87707E-001	0.00000E+000	1.41300E+000	-2.66555E-003	12	...........	-327.56
	1422	71.15	1.42068E+000	3.06101E-001	0.00000E+000	1.42200E+000	-2.67289E-003	12	...........	-327.56
	1431	71.6	1.42961E+000	3.23923E-001	0.00000E+000	1.43100E+000	-2.67522E-003	12	...........	-327.56
	1440	72.05	1.43862E+000	3.42693E-001	0.00000E+000	1.44000E+000	-2.66989E-003	12	...........	-327.56
	1449	72.5	1.44753E+000	3.62124E-001	0.00000E+000	1.44900E+000	-2.66689E-003	12	...........	-327.56
	1458	72.95	1.45654E+000	3.81518E-001	0.00000E+000	1.45800E+000	-2.68489E-003	12	...........	-327.56
	1467	73.4	1.46555E+000	4.01238E-001	0.00000E+000	1.46700E+000	-2.66722E-003	12	...........	-327.56
	1476	73.85	1.47446E+000	4.20539E-001	0.00000E+000	1.47600E+000	-2.67722E-003	12	...........	-327.56
	1485	74.3	1.48347E+000	4.40298E-001	0.00000E+000	1.48500E+000	-2.67189E-003	12	...........	-327.56
	1494	74.75	1.49250E+000	4.59388E-001	0.00000E+000	1.49400E+000	-2.68022E-003	12	...........	-327.56
	1503	75.2	1.50140E+000	4.78695E-001	0.00000E+000	1.50300E+000	-2.67722E-003	12	...........	-327.56
	1512	75.65	1.51039E+000	4.98819E-001	0.00000E+000	1.51200E+000	-2.67589E-003	12	...........	-327.56
	1521	76.1	1.51941E+000	5.19167E-001	0.00000E+000	1.52100E+000	-2.67622E-003	12	...........	-327.56
	1530	76.55	1.52834E+000	5.38810E-001	0.00000E+000	1.53000E+000	-2.67389E-003	12	...........	-327.56
	1539	77	1.53734E+000	5.59942E-001	0.00000E+000	1.53900E+000	-2.66555E-003	12	...........	-327.56
	1548	77.45	1.54632E+000	5.79053E-001	0.00000E+000	1.54800E+000	-2.66689E-003	12	...........	-327.56
	1557	77.9	1.55522E+000	5.99084E-001	0.00000E+000	1.55700E+000	-2.67822E-003	12	...........	-327.56
	1566	78.35	1.56425E+000	6.18852E-001	0.00000E+000	1.56600E+000	-2.66655E-003	12	...........	-327.56
	1575	78.8	1.57325E+000	6.39564E-001	0.00000E+000	1.57500E+000	-2.68922E-003	12	...........	-327.56
	1584	79.25	1.58223E+000	6.59353E-001	0.00000E+000	1.58400E+000	-2.65989E-003	12	...........	-327.56
	1593	79.7	1.59118E+000	6.81578E-001	0.00000E+000	1.59300E+000	-2.66355E-003	12	...........	-327.56
	1602	80.15	1.60009E+000	7.00233E-001	0.00000E+000	1.60200E+000	-2.66689E-003	12	...........	-327.56
	1611	80.6	1.60911E+000	7.20673E-001	0.00000E+000	1.61100E+000	-2.66555E-003	12	...........	-327.56
	1620	81.05	1.61814E+000	7.40607E-001	0.00000E+000	1.62000E+000	-2.68422E-003	12	...........	-327.56
	1629	81.5	1.62705E+000	7.60969E-001	0.00000E+000	1.62900E+000	-2.66755E-003	12	...........	-327.56
	1638	81.95	1.63606E+000	7.80699E-001	0.00000E+000	1.63800E+000	-2.66889E-003	12	...........	-327.56
	1647	82.4	1.64502E+000	8.02539E-001	0.00000E+000	1.64700E+000	-2.66955E-003	12	...........	-327.56
	1656	82.85	1.65396E+000	8.22317E-001	0.00000E+000	1.65600E+000	-2.65755E-003	12	...........	-327.56
	1665	83.3	1.66295E+000	8.44644E-001	0.00000E+000	1.66500E+000	-2.67722E-003	12	...........	-327.56
	1674	83.75	1.67196E+000	8.66532E-001	0.00000E+000	1.67400E+000	-2.67322E-003	12	...........	-327.56
	1683	84.2	1.68090E+000	8.86695E-001	0.00000E+000	1.68300E+000	-2.67689E-003	12	...........	-327.56
	1692	84.65	1.68990E+000	9.06124E-001	0.00000E+000	1.69200E+000	-2.67889E-003	12	...........	-327.56
	1701	85.1	1.69691E+000	9.24389E-001	0.00000E+000	1.69900E+000	-2.67389E-003	12	...........	-327.56
	1710	85.55	1.68789E+000	9.06771E-001	0.00000E+000	1.69000E+000	-2.67889E-003	12	...........	-327.56
	1719	86	1.67888E+000	8.87526E-001	0.00000E+000	1.68100E+000	-2.68222E-003	12	...........	-327.56
	1728	86.45	1.66997E+000	8.68182E-001	0.00000E+000	1.67200E+000	-2.66355E-003	12	...........	-327.56
	1737	86.9	1.66095E+000	8.50027E-001	0.00000E+000	1.66300E+000	-2.67822E-003	12	...........	-327.56
	1746	87.35	1.65191E+000	8.30522E-001	0.00000E+000	1.65400E+000	-2.66689E-003	12	...........	-327.56
	1755	87.8	1.64304E+000	8.13177E-001	0.00000E+000	1.64500E+000	-2.66622E-003	12	...........	-327.56
	1764	88.25	1.63404E+000	7.92918E-001	0.00000E+000	1.63600E+000	-2.67889E-003	12	...........	-327.56
	1773	88.7	1.62509E+000	7.73160E-001	0.00000E+000	1.62700E+000	-2.67955E-003	12	...........	-327.56
	1782	89.15	1.61611E+000	7.54257E-001	0.00000E+000	1.61800E+000	-2.67655E-003	12	...........	-327.56
	1791	89.6	1.60710E+000	7.35782E-001	0.00000E+000	1.60900E+000	-2.67122E-003	12	...........	-327.56
	1800	90.05	1.59818E+000	7.16212E-001	0.00000E+000	1.60000E+000	-2.67989E-003	12	...........	-327.56
	1809	90.5	1.58916E+000	6.97575E-001	0.00000E+000	1.59100E+000	-2.68722E-003	12	...........	-327.56
	1818	90.95	1.58015E+000	6.79505E-001	0.00000E+000	1.58200E+000	-2.67589E-003	12	...........	-327.56
	1827	91.4	1.57123E+000	6.60719E-001	0.00000E+000	1.57300E+000	-2.67422E-003	12	...........	-327.56
	1836	91.85	1.56221E+000	6.46629E-001	0.00000E+000	1.56400E+000	-2.67489E-003	12	...........	-327.56
	1845	92.3	1.55323E+000	6.23737E-001	0.00000E+000	1.55500E+000	-2.68689E-003	12	...........	-327.56
	1854	92.75	1.54428E+000	6.03867E-001	0.00000E+000	1.54600E+000	-2.67489E-003	12	...........	-327.56
	1863	93.2	1.53531E+000	5.85517E-001	0.00000E+000	1.53700E+000	-2.67655E-003	12	...........	-327.56
	1872	93.65	1.52629E+000	5.66787E-001	0.00000E+000	1.52800E+000	-2.66489E-003	12	...........	-327.56
	1881	94.1	1.51738E+000	5.48695E-001	0.00000E+000	1.51900E+000	-2.67489E-003	12	...........	-327.56
	1890	94.55	1.50836E+000	5.30813E-001	0.00000E+000	1.51000E+000	-2.68622E-003	12	...........	-327.56
	1899	95	1.49934E+000	5.12581E-001	0.00000E+000	1.50100E+000	-2.66489E-003	12	...........	-327.56
	1908	95.45	1.49045E+000	4.94105E-001	0.00000E+000	1.49200E+000	-2.67489E-003	12	...........	-327.56
	1917	95.9	1.48144E+000	4.76346E-001	0.00000E+000	1.48300E+000	-2.68089E-003	12	...........	-327.56
	1926	96.35	1.47242E+000	4.60304E-001	0.00000E+000	1.47400E+000	-2.68155E-003	12	...........	-327.56
	1935	96.8	1.46350E+000	4.42452E-001	0.00000E+000	1.46500E+000	-2.67622E-003	12	...........	-327.56
	1944	97.25	1.45447E+000	4.24377E-001	0.00000E+000	1.45600E+000	-2.67555E-003	12	...........	-327.56
	1953	97.7	1.44555E+000	4.06903E-001	0.00000E+000	1.44700E+000	-2.66555E-003	12	...........	-327.56
	1962	98.15	1.43657E+000	3.90341E-001	0.00000E+000	1.43800E+000	-2.66689E-003	12	...........	-327.56
	1971	98.6	1.42757E+000	3.74255E-001	0.00000E+000	1.42900E+000	-2.66889E-003	12	...........	-327.56
	1980	99.05	1.41863E+000	3.57067E-001	0.00000E+000	1.42000E+000	-2.67722E-003	12	...........	-327.56
	1989	99.5	1.40963E+000	3.41063E-001	0.00000E+000	1.41100E+000	-2.67255E-003	12	...........	-327.56
	1998	99.95	1.40061E+000	3.24954E-001	0.00000E+000	1.40200E+000	-2.67455E-003	12	...........	-327.56
	2007	100.4	1.39168E+000	3.08715E-001	0.00000E+000	1.39300E+000	-2.68122E-003	12	...........	-327.56
	2016	100.85	1.38265E+000	2.93628E-001	0.00000E+000	1.38400E+000	-2.67355E-003	12	...........	-327.56
	2025	101.3	1.37367E+000	2.77726E-001	0.00000E+000	1.37500E+000	-2.66622E-003	12	...........	-327.56
	2034	101.75	1.36474E+000	2.62372E-001	0.00000E+000	1.36600E+000	-2.67589E-003	12	...........	-327.56
	2043	102.2	1.35573E+000	2.46986E-001	0.00000E+000	1.35700E+000	-2.67089E-003	12	...........	-327.56
	2052	102.65	1.34645E+000	2.31249E-001	0.00000E+000	1.34800E+000	-2.67589E-003	11	...........	-327.56
	2061	103.1	1.33753E+000	2.16464E-001	0.00000E+000	1.33900E+000	-2.68655E-003	11	...........	-327.56
	2070	103.55	1.32859E+000	2.01903E-001	0.00000E+000	1.33000E+000	-2.66822E-003	11	...........	-327.56
	2079	104	1.31957E+000	1.87630E-001	0.00000E+000	1.32100E+000	-2.66655E-003	11	...........	-327.56
	2088	104.45	1.31069E+000	1.73537E-001	0.00000E+000	1.31200E+000	-2.66655E-003	11	...........	-327.56
	2097	104.9	1.30169E+000	1.60120E-001	0.00000E+000	1.30300E+000	-2.67422E-003	11	...........	-327.56
	2106	105.35	1.29277E+000	1.47742E-001	0.00000E+000	1.29400E+000	-2.66655E-003	11	...........	-327.56
	2115	105.8	1.28379E+000	1.35851E-001	0.00000E+000	1.28500E+000	-2.66689E-003	11	...........	-327.56
	2124	106.25	1.27480E+000	1.24768E-001	0.00000E+000	1.27600E+000	-2.67989E-003	11	...........	-327.56
	2133	106.7	1.26590E+000	1.13822E-001	0.00000E+000	1.26700E+000	-2.67155E-003	11	...........	-327.56
	2142	107.15	1.25691E+000	1.03915E-001	0.00000E+000	1.25800E+000	-2.67089E-003	11	...........	-327.56
	2151	107.6	1.24791E+000	9.47241E-002	0.00000E+000	1.24900E+000	-2.69022E-003	11	...........	-327.56
	2160	108.05	1.23902E+000	8.60927E-002	0.00000E+000	1.24000E+000	-2.67389E-003	11	...........	-327.56
	2169	108.5	1.23007E+000	7.83598E-002	0.00000E+000	1.23100E+000	-2.65889E-003	11	...........	-327.56
	2178	108.95	1.22107E+000	7.12997E-002	0.00000E+000	1.22200E+000	-2.66489E-003	11	...........	-327.56
	2187	109.4	1.21217E+000	6.65631E-002	0.00000E+000	1.21300E+000	-2.67689E-003	11	...........	-327.56
	2196	109.85	1.20320E+000	6.00735E-002	0.00000E+000	1.20400E+000	-2.67089E-003	11	...........	-327.56
	2205	110.3	1.19422E+000	5.48660E-002	0.00000E+000	1.19500E+000	-2.67955E-003	11	...........	-327.56
	2214	110.75	1.18532E+000	5.04895E-002	0.00000E+000	1.18600E+000	-2.68222E-003	11	...........	-327.56
	2223	111.2	1.17630E+000	4.66786E-002	0.00000E+000	1.17700E+000	-2.66955E-003	11	...........	-327.56
	2232	111.65	1.16731E+000	4.34996E-002	0.00000E+000	1.16800E+000	-2.66589E-003	11	...........	-327.56
	2241	112.1	1.15840E+000	4.08976E-002	0.00000E+000	1.15900E+000	-2.67789E-003	11	...........	-327.56
	2250	112.55	1.14937E+000	3.85787E-002	0.00000E+000	1.15000E+000	-2.68989E-003	11	...........	-327.56
	2259	113	1.14035E+000	3.66008E-002	0.00000E+000	1.14100E+000	-2.66589E-003	11	...........	-327.56
	2268	113.45	1.13144E+000	3.51452E-002	0.00000E+000	1.13200E+000	-2.67055E-003	11	...........	-327.56
	2277	113.9	1.12244E+000	3.34249E-002	0.00000E+000	1.12300E+000	-2.67389E-003	11	...........	-327.56
	2286	114.35	1.11351E+000	3.22328E-002	0.00000E+000	1.11400E+000	-2.67889E-003	11	...........	-327.56
	2295	114.8	1.10450E+000	3.12542E-002	0.00000E+000	1.10500E+000	-2.68255E-003	11	...........	-327.56
	2304	115.25	1.09546E+000	3.19550E-002	0.00000E+000	1.09600E+000	-2.67922E-003	11	...........	-327.56
	2313	115.7	1.08654E+000	3.06276E-002	0.00000E+000	1.08700E+000	-2.67455E-003	11	...........	-327.56
	2322	116.15	1.07751E+000	2.99520E-002	0.00000E+000	1.07800E+000	-2.67055E-003	11	...........	-327.56
	2331	116.6	1.06849E+000	2.95297E-002	0.00000E+000	1.06900E+000	-2.68222E-003	11	...........	-327.56
	2340	117.05	1.05954E+000	2.92418E-002	0.00000E+000	1.06000E+000	-2.67189E-003	11	...........	-327.56
	2349	117.5	1.05053E+000	2.90221E-002	0.00000E+000	1.05100E+000	-2.67189E-003	11	...........	-327.56
	2358	117.95	1.04149E+000	2.96587E-002	0.00000E+000	1.04200E+000	-2.67089E-003	11	...........	-327.56
	2367	118.4	1.03256E+000	2.93503E-002	0.00000E+000	1.03300E+000	-2.67322E-003	11	...........	-327.56
	2376	118.85	1.02354E+000	2.91407E-002	0.00000E+000	1.02400E+000	-2.67422E-003	11	...........	-327.56
	2385	119.3	1.01460E+000	2.92531E-002	0.00000E+000	1.01500E+000	-2.67555E-003	11	...........	-327.56
	2394	119.75	1.00559E+000	2.90518E-002	0.00000E+000	1.00600E+000	-2.67555E-003	11	...........	-327.56
	2403	120.2	9.96557E-001	2.91218E-002	0.00000E+000	9.97000E-001	-2.67855E-003	11	...........	-327.56
	2412	120.65	9.87507E-001	2.93455E-002	0.00000E+000	9.88000E-001	-2.66922E-003	11	...........	-327.56
	2421	121.1	9.78616E-001	2.90972E-002	0.00000E+000	9.79000E-001	-2.67422E-003	11	...........	-327.56
	2430	121.55	9.69594E-001	2.91322E-002	0.00000E+000	9.70000E-001	-2.66955E-003	11	...........	-327.56
	2439	122	9.60537E-001	2.91954E-002	0.00000E+000	9.61000E-001	-2.67022E-003	11	...........	-327.56
	2448	122.45	9.51622E-001	2.93299E-002	0.00000E+000	9.52000E-001	-2.66789E-003	11	...........	-327.56
	2457	122.9	9.42616E-001	2.94073E-002	0.00000E+000	9.43000E-001	-2.67689E-003	11	...........	-327.56
	2466	123.35	9.33636E-001	2.95121E-002	0.00000E+000	9.34000E-001	-2.68455E-003	11	...........	-327.56
	2475	123.8	9.24618E-001	2.97374E-002	0.00000E+000	9.25000E-001	-2.67722E-003	11	...........	-327.56
	2484	124.25	9.15632E-001	2.98706E-002	0.00000E+000	9.16000E-001	-2.67022E-003	11	...........	-327.56
	2493	124.7	9.06689E-001	3.02387E-002	0.00000E+000	9.07000E-001	-2.66222E-003	11	...........	-327.56
	2502	125.15	8.97703E-001	3.03307E-002	0.00000E+000	8.98000E-001	-2.67489E-003	11	...........	-327.56
	2511	125.6	8.88641E-001	3.05823E-002	0.00000E+000	8.89000E-001	-2.68555E-003	11	...........	-327.56
	2520	126.05	8.79707E-001	3.09221E-002	0.00000E+000	8.80000E-001	-2.67889E-003	11	...........	-327.56
	2529	126.5	8.70667E-001	3.13188E-002	0.00000E+000	8.71000E-001	-2.67255E-003	11	...........	-327.56
	2538	126.95	8.61667E-001	3.16361E-002	0.00000E+000	8.62000E-001	-2.68155E-003	11	...........	-327.56
	2547	127.4	8.52717E-001	3.20157E-002	0.00000E+000	8.53000E-001	-2.67222E-003	11	...........	-327.56
	2556	127.85	8.43693E-001	3.23366E-002	0.00000E+000	8.44000E-001	-2.66255E-003	11	...........	-327.56
	2565	128.3	8.34672E-001	3.24810E-002	0.00000E+000	8.35000E-001	-2.67855E-003	11	...........	-327.56
	2574	128.75	8.25750E-001	3.25456E-002	0.00000E+000	8.26000E-001	-2.67222E-003	11	...........	-327.56
	2583	129.2	8.16752E-001	3.24855E-002	0.00000E+000	8.17000E-001	-2.67189E-003	11	...........	-327.56
	2592	129.65	8.07711E-001	3.23042E-002	0.00000E+000	8.08000E-001	-2.67789E-003	11	...........	-327.56
	2601	130.1	7.98789E-001	3.20700E-002	0.00000E+000	7.99000E-001	-2.66322E-003	11	...........	-327.56
	2610	130.55	7.89755E-001	3.17587E-002	0.00000E+000	7.90000E-001	-2.66955E-003	11	...........	-327.56
	2619	131	7.80811E-001	3.15758E-002	0.00000E+000	7.81000E-001	-2.67322E-003	11	...........	-327.56
	2628	131.45	7.71801E-001	3.12358E-002	0.00000E+000	7.72000E-001	-2.67122E-003	11	...........	-327.56
	2637	131.9	7.62774E-001	3.09737E-002	0.00000E+000	7.63000E-001	-2.67955E-003	11	...........	-327.56
	2646	132.35	7.53853E-001	3.07493E-002	0.00000E+000	7.54000E-001	-2.66222E-003	11	...........	-327.56
	2655	132.8	7.44830E-001	3.05841E-002	0.00000E+000	7.45000E-001	-2.68189E-003	11	...........	-327.56
	2664	133.25	7.35780E-001	3.04014E-002	0.00000E+000	7.36000E-001	-2.67289E-003	11	...........	-327.56
	2673	133.7	7.26852E-001	3.03956E-002	0.00000E+000	7.27000E-001	-2.66655E-003	11	...........	-327.56
	2682	134.15	7.17815E-001	3.02469E-002	0.00000E+000	7.18000E-001	-2.67989E-003	11	...........	-327.56
	2691	134.6	7.08889E-001	3.01506E-002	0.00000E+000	7.09000E-001	-2.66022E-003	11	...........	-327.56
	2700	135.05	6.99912E-001	3.00511E-002	0.00000E+000	7.00000E-001	-2.66089E-003	11	...........	-327.56
	2709	135.5	6.90874E-001	3.00336E-002	0.00000E+000	6.91000E-001	-2.67122E-003	11	...........	-327.56
	2718	135.95	6.81855E-001	2.98596E-002	0.00000E+000	6.82000E-001	-2.66622E-003	11	...........	-327.56
	2727	136.4	6.72922E-001	2.97577E-002	0.00000E+000	6.73000E-001	-2.67989E-003	11	...........	-327.56
	2736	136.85	6.63893E-001	2.96636E-002	0.00000E+000	6.64000E-001	-2.66622E-003	11	...........	-327.56
	2745	137.3	6.54846E-001	2.95449E-002	0.00000E+000	6.55000E-001	-2.66522E-003	11	...........	-327.56
	2754	137.75	6.45947E-001	2.94182E-002	0.00000E+000	6.46000E-001	-2.67822E-003	11	...........	-327.56
	2763	138.2	6.36925E-001	2.92764E-002	0.00000E+000	6.37000E-001	-2.67489E-003	11	...........	-327.56
	2772	138.65	6.27855E-001	2.91183E-002	0.00000E+000	6.28000E-001	-2.66289E-003	11	...........	-327.56
	2781	139.1	6.18953E-001	2.89270E-002	0.00000E+000	6.19000E-001	-2.66822E-003	11	...........	-327.56
	2790	139.55	6.09925E-001	2.87032E-002	0.00000E+000	6.10000E-001	-2.67589E-003	11	...........	-327.56
	2799	140	6.00993E-001	2.84668E-002	0.00000E+000	6.01000E-001	-2.67422E-003	11	...........	-327.56
	2808	140.45	5.91981E-001	2.81459E-002	0.00000E+000	5.92000E-001	-2.66855E-003	11	...........	-327.56
	2817	140.9	5.82962E-001	2.80402E-002	0.00000E+000	5.83000E-001	-2.67522E-003	11	...........	-327.56
	2826	141.35	5.74024E-001	2.75824E-002	0.00000E+000	5.74000E-001	-2.66989E-003	11	...........	-327.56
	2835	141.8	5.65024E-001	2.73053E-002	0.00000E+000	5.65000E-001	-2.67022E-003	11	...........	-327.56
	2844	142.25	5.55972E-001	2.67199E-002	0.00000E+000	5.56000E-001	-2.67422E-003	11	...........	-327.56
	2853	142.7	5.47024E-001	2.62941E-002	0.00000E+000	5.47000E-001	-2.67089E-003	11	...........	-327.56
	2862	143.15	5.38004E-001	2.58126E-002	0.00000E+000	5.38000E-001	-2.66589E-003	11	...........	-327.56
	2871	143.6	5.28984E-001	2.51662E-002	0.00000E+000	5.29000E-001	-2.67422E-003	11	...........	-327.56
	2880	144.05	5.20061E-001	2.44955E-002	0.00000E+000	5.20000E-001	-2.68189E-003	11	...........	-327.56
	2889	144.5	5.10589E-001	2.38124E-002	0.00000E+000	5.11000E-001	-2.67455E-003	10	...........	-327.56
	2898	144.95	5.01519E-001	2.31394E-002	0.00000E+000	5.02000E-001	-2.67522E-003	10	...........	-327.56
	2907	145.4	4.92602E-001	2.26973E-002	0.00000E+000	4.93000E-001	-2.66855E-003	10	...........	-327.56
	2916	145.85	4.83564E-001	2.17220E-002	0.00000E+000	4.84000E-001	-2.67789E-003	10	...........	-327.56
	2925	146.3	4.74556E-001	2.08813E-002	0.00000E+000	4.75000E-001	-2.66755E-003	10	...........	-327.56
	2934	146.75	4.65656E-001	2.00792E-002	0.00000E+000	4.66000E-001	-2.67589E-003	10	...........	-327.56
	2943	147.2	4.56619E-001	1.93571E-002	0.00000E+000	4.57000E-001	-2.67822E-003	10	...........	-327.56
	2952	147.65	4.47702E-001	1.83514E-002	0.00000E+000	4.48000E-001	-2.66755E-003	10	...........	-327.56
	2961	148.1	4.38692E-001	1.73499E-002	0.00000E+000	4.39000E-001	-2.66755E-003	10	...........	-327.56
	2970	148.55	4.29669E-001	1.65679E-002	0.00000E+000	4.30000E-001	-2.67655E-003	10	...........	-327.56
	2979	149	4.20745E-001	1.55896E-002	0.00000E+000	4.21000E-001	-2.67322E-003	10	...........	-327.56
	2988	149.45	4.11739E-001	1.45767E-002	0.00000E+000	4.12000E-001	-2.66222E-003	10	...........	-327.56
	2997	149.9	4.02708E-001	1.38047E-002	0.00000E+000	4.03000E-001	-2.68422E-003	10	...........	-327.56
	3006	150.35	3.93791E-001	1.28217E-002	0.00000E+000	3.94000E-001	-2.67255E-003	10	...........	-327.56
	3015	150.8	3.84786E-001	1.16005E-002	0.00000E+000	3.85000E-001	-2.67989E-003	10	...........	-327.56
	3024	151.25	3.75755E-001	1.02124E-002	0.00000E+000	3.76000E-001	-2.67389E-003	10	...........	-327.56
	3033	151.7	3.66853E-001	8.98020E-003	0.00000E+000	3.67000E-001	-2.66622E-003	10	...........	-327.56
	3042	152.15	3.57838E-001	7.91367E-003	0.00000E+000	3.58000E-001	-2.67422E-003	10	...........	-327.56
	3051	152.6	3.48900E-001	6.64696E-003	0.00000E+000	3.49000E-001	-2.66955E-003	10	...........	-327.56
	3060	153.05	3.39921E-001	5.80693E-003	0.00000E+000	3.40000E-001	-2.67455E-003	10	...........	-327.56
	3069	153.5	3.30910E-001	4.05969E-003	0.00000E+000	3.31000E-001	-2.67089E-003	10	...........	-327.56
	3078	153.95	3.21181E-001	1.91538E-003	0.00000E+000	3.22000E-001	-2.68022E-003	9	...........	-327.56
	3087	154.4	3.12369E-001	7.59579E-004	0.00000E+000	3.13000E-001	-2.67889E-003	9	...........	-327.56
	3096	154.85	3.03570E-001	-2.32723E-004	0.00000E+000	3.04000E-001	-2.66822E-003	8	.....h.....	-327.56
	3105	155.3	2.94581E-001	-1.21375E-003	0.00000E+000	2.95000E-001	-2.66855E-003	9	...........	-327.56
	3114	155.75	2.85729E-001	-1.63041E-003	0.00000E+000	2.86000E-001	-2.66489E-003	9	...........	-327.56
	3123	156.2	2.76724E-001	-1.91778E-003	0.00000E+000	2.77000E-001	-2.67022E-003	9	...........	-327.56
	3132	156.65	2.67793E-001	-1.94901E-003	0.00000E+000	2.68000E-001	-2.66655E-003	9	...........	-327.56
	3141	157.1	2.58718E-001	-1.52913E-003	0.00000E+000	2.59000E-001	-2.66389E-003	9	...........	-327.56
	3150	157.55	2.49723E-001	-1.72275E-003	0.00000E+000	2.50000E-001	-2.66755E-003	9	...........	-327.56
	3159	158	2.40903E-001	-1.95736E-003	0.00000E+000	2.41000E-001	-2.67289E-003	9	...........	-327.56
	3168	158.45	2.31943E-001	-2.20416E-003	0.00000E+000	2.32000E-001	-2.67389E-003	9	...........	-327.56
	3177	158.9	2.22974E-001	-2.31833E-003	0.00000E+000	2.23000E-001	-2.68289E-003	9	...........	-327.56
	3186	159.35	2.14282E-001	-2.82905E-003	0.00000E+000	2.14000E-001	-2.67155E-003	10	...........	-327.56
	3195	159.8	2.05314E-001	-3.72156E-003	0.00000E+000	2.05000E-001	-2.67422E-003	10	...........	-327.56
	3204	160.25	1.96312E-001	-4.16901E-003	0.00000E+000	1.96000E-001	-2.66522E-003	10	...........	-327.56
	3213	160.7	1.87344E-001	-4.93015E-003	0.00000E+000	1.87000E-001	-2.67422E-003	10	...........	-327.56
	3222	161.15	1.78356E-001	-5.87528E-003	0.00000E+000	1.78000E-001	-2.66155E-003	10	...........	-327.56
	3231	161.6	1.69384E-001	-6.51723E-003	0.00000E+000	1.69000E-001	-2.65989E-003	10	...........	-327.56
	3240	162.05	1.60394E-001	-6.98894E-003	0.00000E+000	1.60000E-001	-2.67222E-003	10	...........	-327.56
	3249	162.5	1.51416E-001	-7.44418E-003	0.00000E+000	1.51000E-001	-2.67689E-003	10	...........	-327.56
	3258	162.95	1.42427E-001	-7.82096E-003	0.00000E+000	1.42000E-001	-2.66855E-003	10	...........	-327.56
	3267	163.4	1.33459E-001	-8.58475E-003	0.00000E+000	1.33000E-001	-2.66922E-003	10	...........	-327.56
	3276	163.85	1.24459E-001	-8.92960E-003	0.00000E+000	1.24000E-001	-2.66889E-003	10	...........	-327.56
	3285	164.3	1.15467E-001	-9.24354E-003	0.00000E+000	1.15000E-001	-2.67255E-003	10	...........	-327.56
	3294	164.75	1.06476E-001	-9.12057E-003	0.00000E+000	1.06000E-001	-2.66822E-003	10	...........	-327.56
	3303	165.2	9.74988E-002	-9.26824E-003	0.00000E+000	9.70000E-002	-2.66489E-003	10	...........	-327.56
	3312	165.65	8.84923E-002	-9.47493E-003	0.00000E+000	8.80000E-002	-2.66289E-003	10	...........	-327.56
	3321	166.1	7.95150E-002	-9.32277E-003	0.00000E+000	7.90000E-002	-2.67522E-003	10	...........	-327.56
	3330	166.55	7.05392E-002	-9.66563E-003	0.00000E+000	7.00000E-002	-2.66355E-003	10	...........	-327.56
[...]
	9675	483.8	9.18561E-001	5.36172E-002	0.00000E+000	9.19000E-001	-2.66955E-003	11	...........	-327.56
	9679	484	9.22482E-001	5.37499E-002	0.00000E+000	9.23000E-001	-2.67189E-003	11	...........	-327.56
	9683	484.2	9.26522E-001	5.41208E-002	0.00000E+000	9.27000E-001	-2.67055E-003	11	...........	-327.56
	9687	484.4	9.30507E-001	5.48621E-002	0.00000E+000	9.31000E-001	-2.66722E-003	11	...........	-327.56
	9691	484.6	9.34511E-001	5.64371E-002	0.00000E+000	9.35000E-001	-2.66689E-003	11	...........	-327.56
	9695	484.8	9.38441E-001	5.62189E-002	0.00000E+000	9.39000E-001	-2.66955E-003	11	...........	-327.56
	9699	485	9.42473E-001	5.68588E-002	0.00000E+000	9.43000E-001	-2.66489E-003	11	...........	-327.56
	9703	485.2	9.46435E-001	5.76382E-002	0.00000E+000	9.47000E-001	-2.66422E-003	11	...........	-327.56
	9707	485.4	9.50429E-001	6.26467E-002	0.00000E+000	9.51000E-001	-2.66789E-003	11	...........	-327.56
	9711	485.6	9.54462E-001	5.83796E-002	0.00000E+000	9.55000E-001	-2.66722E-003	11	...........	-327.56
	9715	485.8	9.58464E-001	5.91039E-002	0.00000E+000	9.59000E-001	-2.67055E-003	11	...........	-327.56
	9719	486	9.62381E-001	6.04991E-002	0.00000E+000	9.63000E-001	-2.66189E-003	11	...........	-327.56
	9723	486.2	9.66388E-001	6.23018E-002	0.00000E+000	9.67000E-001	-2.66022E-003	11	...........	-327.56
	9727	486.4	9.70386E-001	6.11667E-002	0.00000E+000	9.71000E-001	-2.66922E-003	11	...........	-327.56
	9731	486.6	9.74405E-001	6.20326E-002	0.00000E+000	9.75000E-001	-2.67422E-003	11	...........	-327.56
	9735	486.8	9.78413E-001	6.30087E-002	0.00000E+000	9.79000E-001	-2.68155E-003	11	...........	-327.56
	9739	487	9.82385E-001	6.48129E-002	0.00000E+000	9.83000E-001	-2.67989E-003	11	...........	-327.56
	9743	487.2	9.86312E-001	6.40410E-002	0.00000E+000	9.87000E-001	-2.67955E-003	11	...........	-327.56
	9747	487.4	9.90334E-001	6.51148E-002	0.00000E+000	9.91000E-001	-2.65755E-003	11	...........	-327.56
	9751	487.6	9.94330E-001	6.55581E-002	0.00000E+000	9.95000E-001	-2.66955E-003	11	...........	-327.56
	9755	487.8	9.98274E-001	7.32837E-002	0.00000E+000	9.99000E-001	-2.65689E-003	11	...........	-327.56
	9759	488	1.00236E+000	6.69725E-002	0.00000E+000	1.00300E+000	-2.66822E-003	11	...........	-327.56
	9763	488.2	1.00634E+000	6.78880E-002	0.00000E+000	1.00700E+000	-2.66155E-003	11	...........	-327.56
	9767	488.4	1.01034E+000	6.91201E-002	0.00000E+000	1.01100E+000	-2.66589E-003	11	...........	-327.56
	9771	488.6	1.01426E+000	6.98450E-002	0.00000E+000	1.01500E+000	-2.67222E-003	11	...........	-327.56
	9775	488.8	1.01827E+000	7.06417E-002	0.00000E+000	1.01900E+000	-2.66089E-003	11	...........	-327.56
	9779	489	1.02228E+000	7.13594E-002	0.00000E+000	1.02300E+000	-2.66789E-003	11	...........	-327.56
	9783	489.2	1.02617E+000	8.58640E-002	0.00000E+000	1.02700E+000	-2.66622E-003	11	...........	-327.56
	9787	489.4	1.03026E+000	7.45945E-002	0.00000E+000	1.03100E+000	-2.66222E-003	11	...........	-327.56
	9791	489.6	1.03425E+000	7.44185E-002	0.00000E+000	1.03500E+000	-2.67155E-003	11	...........	-327.56
	9795	489.8	1.03816E+000	7.58355E-002	0.00000E+000	1.03900E+000	-2.67289E-003	11	...........	-327.56
	9799	490	1.04218E+000	7.69960E-002	0.00000E+000	1.04300E+000	-2.67789E-003	11	...........	-327.56
	9803	490.2	1.04618E+000	7.79545E-002	0.00000E+000	1.04700E+000	-2.67322E-003	11	...........	-327.56
	9807	490.4	1.05017E+000	7.91318E-002	0.00000E+000	1.05100E+000	-2.67089E-003	11	...........	-327.56
	9811	490.6	1.05420E+000	8.11040E-002	0.00000E+000	1.05500E+000	-2.67022E-003	11	...........	-327.56
	9815	490.8	1.05820E+000	8.16390E-002	0.00000E+000	1.05900E+000	-2.67489E-003	11	...........	-327.56
	9819	491	1.06219E+000	8.29561E-002	0.00000E+000	1.06300E+000	-2.66622E-003	11	...........	-327.56
	9823	491.2	1.06610E+000	8.43779E-002	0.00000E+000	1.06700E+000	-2.66722E-003	11	...........	-327.56
	9827	491.4	1.07011E+000	8.57877E-002	0.00000E+000	1.07100E+000	-2.67622E-003	11	...........	-327.56
	9831	491.6	1.07412E+000	8.72029E-002	0.00000E+000	1.07500E+000	-2.67722E-003	11	...........	-327.56
	9835	491.8	1.07813E+000	8.92354E-002	0.00000E+000	1.07900E+000	-2.66922E-003	11	...........	-327.56
	9839	492	1.08213E+000	9.02642E-002	0.00000E+000	1.08300E+000	-2.66389E-003	11	...........	-327.56
	9843	492.2	1.08612E+000	9.26669E-002	0.00000E+000	1.08700E+000	-2.67189E-003	11	...........	-327.56
	9847	492.4	1.09000E+000	9.36932E-002	0.00000E+000	1.09100E+000	-2.67022E-003	11	...........	-327.56
	9851	492.6	1.09404E+000	9.51362E-002	0.00000E+000	1.09500E+000	-2.66955E-003	11	...........	-327.56
	9855	492.8	1.09802E+000	9.76093E-002	0.00000E+000	1.09900E+000	-2.66755E-003	11	...........	-327.56
	9859	493	1.10203E+000	9.83366E-002	0.00000E+000	1.10300E+000	-2.66622E-003	11	...........	-327.56
	9863	493.2	1.10603E+000	1.03040E-001	0.00000E+000	1.10700E+000	-2.66189E-003	11	...........	-327.56
	9867	493.4	1.11005E+000	1.05669E-001	0.00000E+000	1.11100E+000	-2.66455E-003	11	...........	-327.56
	9871	493.6	1.11400E+000	1.03770E-001	0.00000E+000	1.11500E+000	-2.66255E-003	11	...........	-327.56
	9875	493.8	1.11796E+000	1.05234E-001	0.00000E+000	1.11900E+000	-2.66889E-003	11	...........	-327.56
	9879	494	1.12197E+000	1.06943E-001	0.00000E+000	1.12300E+000	-2.67089E-003	11	...........	-327.56
	9883	494.2	1.12597E+000	1.09163E-001	0.00000E+000	1.12700E+000	-2.67022E-003	11	...........	-327.56
	9887	494.4	1.12993E+000	1.10557E-001	0.00000E+000	1.13100E+000	-2.66155E-003	11	...........	-327.56
	9891	494.6	1.13395E+000	1.12565E-001	0.00000E+000	1.13500E+000	-2.66255E-003	11	...........	-327.56
	9895	494.8	1.13795E+000	1.14201E-001	0.00000E+000	1.13900E+000	-2.66722E-003	11	...........	-327.56
	9899	495	1.14186E+000	1.16004E-001	0.00000E+000	1.14300E+000	-2.66122E-003	11	...........	-327.56
	9903	495.2	1.14586E+000	1.17957E-001	0.00000E+000	1.14700E+000	-2.67189E-003	11	...........	-327.56
	9907	495.4	1.14986E+000	1.22053E-001	0.00000E+000	1.15100E+000	-2.67122E-003	11	...........	-327.56
	9911	495.6	1.15388E+000	1.21144E-001	0.00000E+000	1.15500E+000	-2.66389E-003	11	...........	-327.56
	9915	495.8	1.15784E+000	1.40302E-001	0.00000E+000	1.15900E+000	-2.66622E-003	11	...........	-327.56
	9919	496	1.16190E+000	1.24930E-001	0.00000E+000	1.16300E+000	-2.67322E-003	11	...........	-327.56
	9923	496.2	1.16575E+000	1.42558E-001	0.00000E+000	1.16700E+000	-2.67589E-003	11	...........	-327.56
	9927	496.4	1.16984E+000	1.28297E-001	0.00000E+000	1.17100E+000	-2.66722E-003	11	...........	-327.56
	9931	496.6	1.17382E+000	1.31968E-001	0.00000E+000	1.17500E+000	-2.66689E-003	11	...........	-327.56
	9935	496.8	1.17783E+000	1.31462E-001	0.00000E+000	1.17900E+000	-2.66322E-003	11	...........	-327.56
	9939	497	1.18184E+000	1.33893E-001	0.00000E+000	1.18300E+000	-2.67222E-003	11	...........	-327.56
	9943	497.2	1.18584E+000	1.34813E-001	0.00000E+000	1.18700E+000	-2.67722E-003	11	...........	-327.56
	9947	497.4	1.18983E+000	1.36391E-001	0.00000E+000	1.19100E+000	-2.67222E-003	11	...........	-327.56
	9951	497.6	1.19379E+000	1.54147E-001	0.00000E+000	1.19500E+000	-2.66355E-003	11	...........	-327.56
	9955	497.8	1.19776E+000	1.39265E-001	0.00000E+000	1.19900E+000	-2.66222E-003	11	...........	-327.56
	9959	498	1.20180E+000	1.41184E-001	0.00000E+000	1.20300E+000	-2.66522E-003	11	...........	-327.56
	9963	498.2	1.20578E+000	1.42336E-001	0.00000E+000	1.20700E+000	-2.67355E-003	11	...........	-327.56
	9967	498.4	1.20981E+000	1.43765E-001	0.00000E+000	1.21100E+000	-2.66689E-003	11	...........	-327.56
	9971	498.6	1.21378E+000	1.54647E-001	0.00000E+000	1.21500E+000	-2.67289E-003	11	...........	-327.56
	9975	498.8	1.21777E+000	1.47324E-001	0.00000E+000	1.21900E+000	-2.66289E-003	11	...........	-327.56
	9979	499	1.22174E+000	1.47878E-001	0.00000E+000	1.22300E+000	-2.67722E-003	11	...........	-327.56
	9983	499.2	1.22576E+000	1.53723E-001	0.00000E+000	1.22700E+000	-2.67189E-003	11	...........	-327.56
	9987	499.4	1.22975E+000	1.50212E-001	0.00000E+000	1.23100E+000	-2.67322E-003	11	...........	-327.56
	9991	499.6	1.23378E+000	1.51593E-001	0.00000E+000	1.23500E+000	-2.66855E-003	11	...........	-327.56
	9995	499.8	1.23775E+000	1.53013E-001	0.00000E+000	1.23900E+000	-2.66755E-003	11	...........	-327.56
	9999	500	1.24178E+000	1.54132E-001	0.00000E+000	1.24300E+000	-2.66622E-003	11	...........	-327.56
	10003	500.2	1.24568E+000	1.62075E-001	0.00000E+000	1.24700E+000	-2.66455E-003	11	...........	-327.56
	10007	500.4	1.24972E+000	1.56784E-001	0.00000E+000	1.25100E+000	-2.66622E-003	11	...........	-327.56
	10011	500.6	1.25370E+000	1.57290E-001	0.00000E+000	1.25500E+000	-2.66522E-003	11	...........	-327.56
	10015	500.8	1.25774E+000	1.58912E-001	0.00000E+000	1.25900E+000	-2.66389E-003	11	...........	-327.56
	10019	501	1.26173E+000	1.63915E-001	0.00000E+000	1.26300E+000	-2.66922E-003	11	...........	-327.56
	10023	501.2	1.26575E+000	1.61650E-001	0.00000E+000	1.26700E+000	-2.66422E-003	11	...........	-327.56
	10027	501.4	1.26966E+000	1.62318E-001	0.00000E+000	1.27100E+000	-2.67055E-003	11	...........	-327.56
	10031	501.6	1.27374E+000	1.63714E-001	0.00000E+000	1.27500E+000	-2.67522E-003	11	...........	-327.56
	10035	501.8	1.27767E+000	1.69390E-001	0.00000E+000	1.27900E+000	-2.66389E-003	11	...........	-327.56
	10039	502	1.28169E+000	1.66655E-001	0.00000E+000	1.28300E+000	-2.66922E-003	11	...........	-327.56
	10043	502.2	1.28569E+000	1.68238E-001	0.00000E+000	1.28700E+000	-2.67522E-003	11	...........	-327.56
	10047	502.4	1.28971E+000	1.69098E-001	0.00000E+000	1.29100E+000	-2.66055E-003	11	...........	-327.56
	10051	502.6	1.29361E+000	1.72329E-001	0.00000E+000	1.29500E+000	-2.67122E-003	11	...........	-327.56
	10055	502.8	1.29765E+000	1.78519E-001	0.00000E+000	1.29900E+000	-2.66822E-003	11	...........	-327.56
	10059	503	1.30164E+000	1.73582E-001	0.00000E+000	1.30300E+000	-2.67122E-003	11	...........	-327.56
	10063	503.2	1.30563E+000	1.75177E-001	0.00000E+000	1.30700E+000	-2.67655E-003	11	...........	-327.56
	10067	503.4	1.30965E+000	1.76924E-001	0.00000E+000	1.31100E+000	-2.66789E-003	11	...........	-327.56
	10071	503.6	1.31366E+000	1.79634E-001	0.00000E+000	1.31500E+000	-2.67622E-003	11	...........	-327.56
	10075	503.8	1.31766E+000	1.81780E-001	0.00000E+000	1.31900E+000	-2.65789E-003	11	...........	-327.56
	10079	504	1.32161E+000	1.83403E-001	0.00000E+000	1.32300E+000	-2.65922E-003	11	...........	-327.56
	10083	504.2	1.32559E+000	1.85935E-001	0.00000E+000	1.32700E+000	-2.67255E-003	11	...........	-327.56
	10087	504.4	1.32960E+000	1.87049E-001	0.00000E+000	1.33100E+000	-2.67922E-003	11	...........	-327.56
	10091	504.6	1.33356E+000	1.89646E-001	0.00000E+000	1.33500E+000	-2.66189E-003	11	...........	-327.56
	10095	504.8	1.33756E+000	1.92406E-001	0.00000E+000	1.33900E+000	-2.66822E-003	11	...........	-327.56
	10099	505	1.34143E+000	2.29387E-001	0.00000E+000	1.34300E+000	-2.66855E-003	11	...........	-327.56
	10103	505.2	1.34547E+000	2.05538E-001	0.00000E+000	1.34700E+000	-2.66322E-003	11	...........	-327.56
	10107	505.4	1.34949E+000	2.02568E-001	0.00000E+000	1.35100E+000	-2.66689E-003	11	...........	-327.56
	10111	505.6	1.35350E+000	2.05441E-001	0.00000E+000	1.35500E+000	-2.66755E-003	11	...........	-327.56
	10115	505.8	1.35748E+000	2.08439E-001	0.00000E+000	1.35900E+000	-2.67289E-003	11	...........	-327.56
	10119	506	1.36149E+000	2.13824E-001	0.00000E+000	1.36300E+000	-2.67489E-003	11	...........	-327.56
	10123	506.2	1.36550E+000	2.15856E-001	0.00000E+000	1.36700E+000	-2.67589E-003	11	...........	-327.56
	10127	506.4	1.36950E+000	2.20550E-001	0.00000E+000	1.37100E+000	-2.66722E-003	11	...........	-327.56
	10131	506.6	1.37343E+000	2.26184E-001	0.00000E+000	1.37500E+000	-2.65522E-003	11	...........	-327.56
	10135	506.8	1.37742E+000	2.34270E-001	0.00000E+000	1.37900E+000	-2.67255E-003	11	...........	-327.56
	10139	507	1.38142E+000	2.33735E-001	0.00000E+000	1.38300E+000	-2.66555E-003	11	...........	-327.56
	10143	507.2	1.38541E+000	2.38347E-001	0.00000E+000	1.38700E+000	-2.67122E-003	11	...........	-327.56
	10147	507.4	1.38942E+000	2.43716E-001	0.00000E+000	1.39100E+000	-2.65622E-003	11	...........	-327.56
	10151	507.6	1.39341E+000	2.52256E-001	0.00000E+000	1.39500E+000	-2.66955E-003	11	...........	-327.56
	10155	507.8	1.39732E+000	2.55263E-001	0.00000E+000	1.39900E+000	-2.67589E-003	11	...........	-327.56
	10159	508	1.40162E+000	2.61676E-001	0.00000E+000	1.40300E+000	-2.67089E-003	12	...........	-327.56
	10163	508.2	1.40564E+000	2.67403E-001	0.00000E+000	1.40700E+000	-2.65989E-003	12	...........	-327.56
	10167	508.4	1.40965E+000	2.73962E-001	0.00000E+000	1.41100E+000	-2.66255E-003	12	...........	-327.56
	10171	508.6	1.41368E+000	2.82493E-001	0.00000E+000	1.41500E+000	-2.65555E-003	12	...........	-327.56
	10175	508.8	1.41767E+000	2.88535E-001	0.00000E+000	1.41900E+000	-2.66255E-003	12	...........	-327.56
	10179	509	1.42158E+000	2.94176E-001	0.00000E+000	1.42300E+000	-2.65855E-003	12	...........	-327.56
	10183	509.2	1.42556E+000	3.01534E-001	0.00000E+000	1.42700E+000	-2.66855E-003	12	...........	-327.56
	10187	509.4	1.42959E+000	3.19489E-001	0.00000E+000	1.43100E+000	-2.67355E-003	12	...........	-327.56
	10191	509.6	1.43356E+000	3.16408E-001	0.00000E+000	1.43500E+000	-2.67155E-003	12	...........	-327.56
	10195	509.8	1.43759E+000	3.23694E-001	0.00000E+000	1.43900E+000	-2.66655E-003	12	...........	-327.56
	10199	510	1.44156E+000	3.37696E-001	0.00000E+000	1.44300E+000	-2.67155E-003	12	...........	-327.56
	10203	510.2	1.44558E+000	3.38182E-001	0.00000E+000	1.44700E+000	-2.67889E-003	12	...........	-327.56
	10207	510.4	1.44949E+000	3.46386E-001	0.00000E+000	1.45100E+000	-2.66489E-003	12	...........	-327.56
	10211	510.6	1.45350E+000	3.59140E-001	0.00000E+000	1.45500E+000	-2.67322E-003	12	...........	-327.56
	10215	510.8	1.45749E+000	3.62459E-001	0.00000E+000	1.45900E+000	-2.66489E-003	12	...........	-327.56
	10219	511	1.46152E+000	3.70380E-001	0.00000E+000	1.46300E+000	-2.66789E-003	12	...........	-327.56
	10223	511.2	1.46553E+000	3.78074E-001	0.00000E+000	1.46700E+000	-2.66055E-003	12	...........	-327.56
	10227	511.4	1.46951E+000	3.86361E-001	0.00000E+000	1.47100E+000	-2.66955E-003	12	...........	-327.56
	10231	511.6	1.47346E+000	3.94326E-001	0.00000E+000	1.47500E+000	-2.67255E-003	12	...........	-327.56
	10235	511.8	1.47744E+000	4.02550E-001	0.00000E+000	1.47900E+000	-2.66722E-003	12	...........	-327.56
	10239	512	1.48146E+000	4.10721E-001	0.00000E+000	1.48300E+000	-2.66322E-003	12	...........	-327.56
	10243	512.2	1.48544E+000	4.20222E-001	0.00000E+000	1.48700E+000	-2.67422E-003	12	...........	-327.56
	10247	512.4	1.48947E+000	4.27993E-001	0.00000E+000	1.49100E+000	-2.66489E-003	12	...........	-327.56
	10251	512.6	1.49343E+000	4.39307E-001	0.00000E+000	1.49500E+000	-2.67089E-003	12	...........	-327.56
	10255	512.8	1.49745E+000	4.46467E-001	0.00000E+000	1.49900E+000	-2.66289E-003	12	...........	-327.56
	10259	513	1.50136E+000	4.54242E-001	0.00000E+000	1.50300E+000	-2.67422E-003	12	...........	-327.56
	10263	513.2	1.50541E+000	4.63457E-001	0.00000E+000	1.50700E+000	-2.66822E-003	12	...........	-327.56
	10267	513.4	1.50937E+000	4.73563E-001	0.00000E+000	1.51100E+000	-2.67155E-003	12	...........	-327.56
	10271	513.6	1.51342E+000	4.79909E-001	0.00000E+000	1.51500E+000	-2.66655E-003	12	...........	-327.56
	10275	513.8	1.51740E+000	4.89957E-001	0.00000E+000	1.51900E+000	-2.66489E-003	12	...........	-327.56
	10279	514	1.52140E+000	4.98413E-001	0.00000E+000	1.52300E+000	-2.66589E-003	12	...........	-327.56
	10283	514.2	1.52531E+000	5.08306E-001	0.00000E+000	1.52700E+000	-2.68722E-003	12	...........	-327.56
	10287	514.4	1.52937E+000	5.15918E-001	0.00000E+000	1.53100E+000	-2.66022E-003	12	...........	-327.56
	10291	514.6	1.53331E+000	5.24599E-001	0.00000E+000	1.53500E+000	-2.67889E-003	12	...........	-327.56
	10295	514.8	1.53731E+000	5.32532E-001	0.00000E+000	1.53900E+000	-2.67389E-003	12	...........	-327.56
	10299	515	1.54129E+000	5.42055E-001	0.00000E+000	1.54300E+000	-2.67189E-003	12	...........	-327.56
	10303	515.2	1.54529E+000	5.50418E-001	0.00000E+000	1.54700E+000	-2.66389E-003	12	...........	-327.56
	10307	515.4	1.54920E+000	5.59605E-001	0.00000E+000	1.55100E+000	-2.67722E-003	12	...........	-327.56
	10311	515.6	1.55325E+000	5.69062E-001	0.00000E+000	1.55500E+000	-2.66889E-003	12	...........	-327.56
	10315	515.8	1.55722E+000	5.77359E-001	0.00000E+000	1.55900E+000	-2.66622E-003	12	...........	-327.56
	10319	516	1.56120E+000	5.85513E-001	0.00000E+000	1.56300E+000	-2.66355E-003	12	...........	-327.56
	10323	516.2	1.56524E+000	5.94648E-001	0.00000E+000	1.56700E+000	-2.67055E-003	12	...........	-327.56
	10327	516.4	1.56924E+000	6.03339E-001	0.00000E+000	1.57100E+000	-2.66255E-003	12	...........	-327.56
	10331	516.6	1.57323E+000	6.12112E-001	0.00000E+000	1.57500E+000	-2.66989E-003	12	...........	-327.56
	10335	516.8	1.57719E+000	6.21526E-001	0.00000E+000	1.57900E+000	-2.66922E-003	12	...........	-327.56
	10339	517	1.58116E+000	6.31689E-001	0.00000E+000	1.58300E+000	-2.67755E-003	12	...........	-327.56
	10343	517.2	1.58517E+000	6.40674E-001	0.00000E+000	1.58700E+000	-2.66389E-003	12	...........	-327.56
	10347	517.4	1.58916E+000	6.49485E-001	0.00000E+000	1.59100E+000	-2.66555E-003	12	...........	-327.56
	10351	517.6	1.59317E+000	6.58256E-001	0.00000E+000	1.59500E+000	-2.67255E-003	12	...........	-327.56
	10355	517.8	1.59718E+000	6.66971E-001	0.00000E+000	1.59900E+000	-2.67589E-003	12	...........	-327.56
	10359	518	1.60109E+000	6.75310E-001	0.00000E+000	1.60300E+000	-2.66989E-003	12	...........	-327.56
	10363	518.2	1.60509E+000	6.84865E-001	0.00000E+000	1.60700E+000	-2.66322E-003	12	...........	-327.56
	10367	518.4	1.60909E+000	6.93320E-001	0.00000E+000	1.61100E+000	-2.66022E-003	12	...........	-327.56
	10371	518.6	1.61309E+000	7.04238E-001	0.00000E+000	1.61500E+000	-2.67155E-003	12	...........	-327.56
	10375	518.8	1.61710E+000	7.13525E-001	0.00000E+000	1.61900E+000	-2.66155E-003	12	...........	-327.56
	10379	519	1.62110E+000	7.22410E-001	0.00000E+000	1.62300E+000	-2.65989E-003	12	...........	-327.56
	10383	519.2	1.62508E+000	7.32033E-001	0.00000E+000	1.62700E+000	-2.67155E-003	12	...........	-327.56
	10387	519.4	1.62901E+000	7.41273E-001	0.00000E+000	1.63100E+000	-2.65222E-003	12	...........	-327.56
	10391	519.6	1.63301E+000	7.50222E-001	0.00000E+000	1.63500E+000	-2.67355E-003	12	...........	-327.56
	10395	519.8	1.63702E+000	7.60561E-001	0.00000E+000	1.63900E+000	-2.67355E-003	12	...........	-327.56
	10399	520	1.64100E+000	7.69877E-001	0.00000E+000	1.64300E+000	-2.67222E-003	12	...........	-327.56
	10403	520.2	1.64500E+000	7.78316E-001	0.00000E+000	1.64700E+000	-2.66422E-003	12	...........	-327.56
	10407	520.4	1.64899E+000	7.88938E-001	0.00000E+000	1.65100E+000	-2.67222E-003	12	...........	-327.56
	10411	520.6	1.65291E+000	7.99476E-001	0.00000E+000	1.65500E+000	-2.67355E-003	12	...........	-327.56
	10415	520.8	1.65693E+000	8.08731E-001	0.00000E+000	1.65900E+000	-2.66889E-003	12	...........	-327.56
	10419	521	1.66093E+000	8.17876E-001	0.00000E+000	1.66300E+000	-2.65889E-003	12	...........	-327.56
	10423	521.2	1.66494E+000	8.27640E-001	0.00000E+000	1.66700E+000	-2.66489E-003	12	...........	-327.56
	10427	521.4	1.66894E+000	8.35185E-001	0.00000E+000	1.67100E+000	-2.66922E-003	12	...........	-327.56
	10431	521.6	1.67294E+000	8.46736E-001	0.00000E+000	1.67500E+000	-2.66489E-003	12	...........	-327.56
	10435	521.8	1.67686E+000	8.56098E-001	0.00000E+000	1.67900E+000	-2.67222E-003	12	...........	-327.56
	10439	522	1.68086E+000	8.65764E-001	0.00000E+000	1.68300E+000	-2.68022E-003	12	...........	-327.56
	10443	522.2	1.68487E+000	8.75723E-001	0.00000E+000	1.68700E+000	-2.67055E-003	12	...........	-327.56
	10447	522.4	1.68887E+000	8.85155E-001	0.00000E+000	1.69100E+000	-2.66289E-003	12	...........	-327.56
	10451	522.6	1.69287E+000	8.95681E-001	0.00000E+000	1.69500E+000	-2.67355E-003	12	...........	-327.56
	10455	522.8	1.69687E+000	9.04364E-001	0.00000E+000	1.69900E+000	-2.67189E-003	12	...........	-327.56
	10456	522.85	1.69787E+000	9.08407E-001	0.00000E+000	1.70000E+000	-2.67122E-003	12	...........	-327.56