File: testing/data/240902_23_MCL13_cspWE_CV1_750C_CO2.DTA
EXPLAIN
TAG	CV
TITLE	LABEL	Cyclic Voltammetry	Test Identifier
DATE	LABEL	9/4/2024	Date
TIME	LABEL	1:42:02	Time
NOTES	NOTES	5	Notes...
	cswWE - carbon steel wire
cspWE - carbon steel plate 2x2 tapered

Carbon steel plate counter electrode
Carbon steel wire reference electrode
PSTAT	PSTAT	REF3000-48128	Potentiostat
VINIT	POTEN	0.00000E+000	T	Initial E (V)
VLIMIT1	POTEN	1.70000E+000	F	Scan Limit 1 (V)
VLIMIT2	POTEN	-8.00000E-001	F	Scan Limit 2 (V)
VFINAL	POTEN	1.70000E+000	F	Final E (V)
SCANRATE	QUANT	9.99998E-001	Scan Rate (mV/s)
STEPSIZE	QUANT	1.00000E+000	Step Size (mV)
CYCLES	IQUANT	2	Cycles (#)
IMODE	SELECTOR	0	I/E Range Mode
IRANGE	QUANT	3.00000E-001	Max Current (mA)
AREA	QUANT	1.00000E+000	Sample Area (cm^2)
EQDELAY	QUANT	0.00000E+000	Equil. Time (s)
IRCOMP	SELECTOR	0	IRComp
PFCOR	QUANT	5.00000E+001	PF Corr. (ohm)
SAMPLINGMODE	SELECTOR	1	Sampling Mode
EOC	QUANT	0.5299046	Open Circuit (V)
ELECTRODETYPE	SELECTOR	0	Electrode Type
STRIPPING	TOGGLE	F	Used for Stripping
SEQUENCER	TOGGLE	TRUE	Run as Sequence
PSTATMODEL	IQUANT	5	Pstat Model
PSTATSECTION	LABEL	REF3000-48128	Pstat Section
PSTATSERIALNO	LABEL	48128	Pstat Serial Number
CTRLMODE	IQUANT	1	Control Mode
ELECTROMETER	IQUANT	0	RE=0 or CS=1
IESTAB	IQUANT	2	I/E Stability
CASPEED	IQUANT	4	Control Amp Speed
CONVENTION	IQUANT	1	Current Convention
ICHRANGE	IQUANT	2	Ich Range
ICHRANGEMODE	TOGGLE	F	Ich Auto Range
ICHOFFSETENABLE	TOGGLE	F	Ich Offset Enable
ICHOFFSET	QUANT	0	Ich Offset (V)
ICHFILTER	IQUANT	3	Ich Filter
VCHRANGE	IQUANT	2	Vch Range
VCHRANGEMODE	TOGGLE	F	Vch Auto Range
VCHOFFSETENABLE	TOGGLE	F	Vch Offset Enable
VCHOFFSET	QUANT	0	Vch Offset (V)
VCHFILTER	IQUANT	3	Vch Filter
ACHRANGE	IQUANT	2	Ach Range
ACHOFFSETENABLE	TOGGLE	F	Ach Offset Enable
ACHOFFSET	QUANT	0	Ach Offset (V)
ACHFILTER	IQUANT	1	Ach Filter
IERANGELOWERLIMIT	IQUANT	2	I/E Range Lower Limit
IERANGEMODE	TOGGLE	T	I/E AutoRange
IERANGE	IQUANT	9	I/E Range
POSFEEDENABLE	TOGGLE	F	Positive Feedback IR Comp
POSFEEDRESISTANCE	QUANT	0	Positive Feedback Resistance (ohm)
ACHSELECT	IQUANT	4	Ach Select
SENSECABLEID	IQUANT	14	Sense Cable ID
PWRCABLEID	IQUANT	7	Power Cable ID
DCCALDATE	LABEL	8/16/2024	DC Calibration Date
ACCALDATE	LABEL	8/16/2024	AC Calibration Date
THERMOSELECT	IQUANT	1	Thermo Select
FRAMEWORKVERSION	LABEL	7.10.3	Framework Version
INSTRUMENTVERSION	LABEL	4.91	Instrument Version
COMMVERSION	LABEL	5.10	Communications Version
CPUPLDVERSION	LABEL	6.00	CPU PLD Version
CTRLPLDVERSION	LABEL	3.21	CTRL PLD Version
PSTATPLDVERSION	LABEL	0.00	PSTAT PLD Version
COMPLIANCEVOLTAGE	IQUANT	0	Compliance Voltage
CURVE1	TABLE
	Pt	T	Vf	Im	Vu	Sig	Ach	IERange	Over	Temp
	#	s	V vs. Ref.	A	V	V	V	#	bits	deg C
	0	1	5.29001E-001	2.47289E-003	0.00000E+000	5.29900E-001	-1.07671E-004	9	...........	-327.56
	8	9	5.37036E-001	2.18805E-002	0.00000E+000	5.37900E-001	-1.05521E-004	10	...........	-327.56
	16	17	5.45302E-001	3.51279E-002	0.00000E+000	5.45900E-001	-1.05555E-004	11	...........	-327.56
	24	25	5.53180E-001	5.75380E-002	0.00000E+000	5.53900E-001	-1.20188E-004	11	...........	-327.56
	32	33	5.61173E-001	7.09368E-002	0.00000E+000	5.61900E-001	-1.19471E-004	11	...........	-327.56
	40	41	5.69191E-001	8.11978E-002	0.00000E+000	5.69900E-001	-1.20788E-004	11	...........	-327.56
	48	49	5.77084E-001	9.19705E-002	0.00000E+000	5.77900E-001	-1.21305E-004	11	...........	-327.56
	56	57	5.85120E-001	9.15671E-002	0.00000E+000	5.85900E-001	-1.17521E-004	11	...........	-327.56
	64	65	5.93129E-001	1.09941E-001	0.00000E+000	5.93900E-001	-1.18571E-004	11	...........	-327.56
	72	73	6.01096E-001	1.17326E-001	0.00000E+000	6.01900E-001	-1.15505E-004	11	...........	-327.56
	80	81	6.09065E-001	1.21556E-001	0.00000E+000	6.09900E-001	-1.18971E-004	11	...........	-327.56
	88	89	6.17064E-001	1.25133E-001	0.00000E+000	6.17900E-001	-1.17021E-004	11	...........	-327.56
	96	97	6.25063E-001	1.27020E-001	0.00000E+000	6.25900E-001	-1.20421E-004	11	...........	-327.56
	104	105	6.33008E-001	1.30649E-001	0.00000E+000	6.33900E-001	-1.20221E-004	11	...........	-327.56
	112	113	6.41030E-001	1.33421E-001	0.00000E+000	6.41900E-001	-1.16755E-004	11	...........	-327.56
	120	121	6.49045E-001	1.32651E-001	0.00000E+000	6.49900E-001	-1.18188E-004	11	...........	-327.56
	128	129	6.56989E-001	1.34210E-001	0.00000E+000	6.57900E-001	-1.18821E-004	11	...........	-327.56
	136	137	6.64995E-001	1.38480E-001	0.00000E+000	6.65900E-001	-1.16388E-004	11	...........	-327.56
	144	145	6.73030E-001	1.37913E-001	0.00000E+000	6.73900E-001	-1.17371E-004	11	...........	-327.56
	152	153	6.80943E-001	1.38519E-001	0.00000E+000	6.81900E-001	-1.17371E-004	11	...........	-327.56
	160	161	6.88988E-001	1.34750E-001	0.00000E+000	6.89900E-001	-1.18805E-004	11	...........	-327.56
	168	169	6.97017E-001	1.34759E-001	0.00000E+000	6.97900E-001	-1.16371E-004	11	...........	-327.56
	176	177	7.04906E-001	1.33559E-001	0.00000E+000	7.05900E-001	-1.18488E-004	11	...........	-327.56
	184	185	7.12981E-001	1.29978E-001	0.00000E+000	7.13900E-001	-1.19838E-004	11	...........	-327.56
	192	193	7.20970E-001	1.29816E-001	0.00000E+000	7.21900E-001	-1.17705E-004	11	...........	-327.56
	200	201	7.28956E-001	1.29143E-001	0.00000E+000	7.29900E-001	-1.19221E-004	11	...........	-327.56
	208	209	7.36920E-001	1.28088E-001	0.00000E+000	7.37900E-001	-1.18321E-004	11	...........	-327.56
	216	217	7.44951E-001	1.30437E-001	0.00000E+000	7.45900E-001	-1.19305E-004	11	...........	-327.56
	224	225	7.52957E-001	1.32321E-001	0.00000E+000	7.53900E-001	-1.17555E-004	11	...........	-327.56
	232	233	7.60894E-001	1.31758E-001	0.00000E+000	7.61900E-001	-1.16438E-004	11	...........	-327.56
	240	241	7.68903E-001	1.32249E-001	0.00000E+000	7.69900E-001	-1.17088E-004	11	...........	-327.56
	248	249	7.76940E-001	1.31997E-001	0.00000E+000	7.77900E-001	-1.18421E-004	11	...........	-327.56
	256	257	7.84865E-001	1.30907E-001	0.00000E+000	7.85900E-001	-1.17338E-004	11	...........	-327.56
	264	265	7.92866E-001	1.31705E-001	0.00000E+000	7.93900E-001	-1.17288E-004	11	...........	-327.56
	272	273	8.00908E-001	1.32360E-001	0.00000E+000	8.01900E-001	-1.18921E-004	11	...........	-327.56
	280	281	8.08816E-001	1.33142E-001	0.00000E+000	8.09900E-001	-1.16538E-004	11	...........	-327.56
	288	289	8.16864E-001	1.32679E-001	0.00000E+000	8.17900E-001	-1.17671E-004	11	...........	-327.56
	296	297	8.24837E-001	1.32795E-001	0.00000E+000	8.25900E-001	-1.19071E-004	11	...........	-327.56
	304	305	8.32755E-001	1.33339E-001	0.00000E+000	8.33900E-001	-1.16488E-004	11	...........	-327.56
	312	313	8.40792E-001	1.32322E-001	0.00000E+000	8.41900E-001	-1.16571E-004	11	...........	-327.56
	320	321	8.48840E-001	1.32491E-001	0.00000E+000	8.49900E-001	-1.18971E-004	11	...........	-327.56
	328	329	8.56841E-001	1.31818E-001	0.00000E+000	8.57900E-001	-1.19588E-004	11	...........	-327.56
	336	337	8.64780E-001	1.30423E-001	0.00000E+000	8.65900E-001	-1.14238E-004	11	...........	-327.56
	344	345	8.72821E-001	1.29878E-001	0.00000E+000	8.73900E-001	-1.17738E-004	11	...........	-327.56
	352	353	8.80823E-001	1.28685E-001	0.00000E+000	8.81900E-001	-1.16288E-004	11	...........	-327.56
	360	361	8.88769E-001	1.27514E-001	0.00000E+000	8.89900E-001	-1.14938E-004	11	...........	-327.56
	368	369	8.96788E-001	1.25706E-001	0.00000E+000	8.97900E-001	-1.13838E-004	11	...........	-327.56
	376	377	9.04820E-001	1.26285E-001	0.00000E+000	9.05900E-001	-1.18288E-004	11	...........	-327.56
	384	385	9.12761E-001	1.25240E-001	0.00000E+000	9.13900E-001	-1.13638E-004	11	...........	-327.56
	392	393	9.20766E-001	1.24427E-001	0.00000E+000	9.21900E-001	-1.15238E-004	11	...........	-327.56
	400	401	9.28764E-001	1.23724E-001	0.00000E+000	9.29900E-001	-1.17021E-004	11	...........	-327.56
	408	409	9.36690E-001	1.23980E-001	0.00000E+000	9.37900E-001	-1.14255E-004	11	...........	-327.56
	416	417	9.44710E-001	1.24504E-001	0.00000E+000	9.45900E-001	-1.12488E-004	11	...........	-327.56
	424	425	9.52751E-001	1.24662E-001	0.00000E+000	9.53900E-001	-1.15705E-004	11	...........	-327.56
	432	433	9.60656E-001	1.23988E-001	0.00000E+000	9.61900E-001	-1.17388E-004	11	...........	-327.56
	440	441	9.68689E-001	1.23983E-001	0.00000E+000	9.69900E-001	-1.15421E-004	11	...........	-327.56
	448	449	9.76724E-001	1.25413E-001	0.00000E+000	9.77900E-001	-1.14605E-004	11	...........	-327.56
	456	457	9.84718E-001	1.27760E-001	0.00000E+000	9.85900E-001	-1.16188E-004	11	...........	-327.56
	464	465	9.92666E-001	1.25205E-001	0.00000E+000	9.93900E-001	-1.12555E-004	11	...........	-327.56
	472	473	1.00072E+000	1.25529E-001	0.00000E+000	1.00190E+000	-1.16671E-004	11	...........	-327.56
	480	481	1.00872E+000	1.27069E-001	0.00000E+000	1.00990E+000	-1.15538E-004	11	...........	-327.56
	488	489	1.01664E+000	1.29100E-001	0.00000E+000	1.01790E+000	-1.17421E-004	11	...........	-327.56
	496	497	1.02465E+000	1.31976E-001	0.00000E+000	1.02590E+000	-1.14671E-004	11	...........	-327.56
	504	505	1.03267E+000	1.35237E-001	0.00000E+000	1.03390E+000	-1.14638E-004	11	...........	-327.56
	512	513	1.04059E+000	1.39373E-001	0.00000E+000	1.04190E+000	-1.16505E-004	11	...........	-327.56
	520	521	1.04859E+000	1.43732E-001	0.00000E+000	1.04990E+000	-1.16821E-004	11	...........	-327.56
	528	529	1.05665E+000	1.49786E-001	0.00000E+000	1.05790E+000	-1.14105E-004	11	...........	-327.56
	536	537	1.06454E+000	1.56225E-001	0.00000E+000	1.06590E+000	-1.17205E-004	11	...........	-327.56
	544	545	1.07256E+000	1.65430E-001	0.00000E+000	1.07390E+000	-1.14621E-004	11	...........	-327.56
	552	553	1.08057E+000	1.74564E-001	0.00000E+000	1.08190E+000	-1.15721E-004	11	...........	-327.56
	560	561	1.08844E+000	1.85477E-001	0.00000E+000	1.08990E+000	-1.16471E-004	11	...........	-327.56
	568	569	1.09647E+000	1.99134E-001	0.00000E+000	1.09790E+000	-1.16371E-004	11	...........	-327.56
	576	577	1.10450E+000	2.12949E-001	0.00000E+000	1.10590E+000	-1.15038E-004	11	...........	-327.56
	584	585	1.11247E+000	2.25006E-001	0.00000E+000	1.11390E+000	-1.14388E-004	11	...........	-327.56
	592	593	1.12037E+000	2.43237E-001	0.00000E+000	1.12190E+000	-1.15055E-004	11	...........	-327.56
	600	601	1.12835E+000	2.58574E-001	0.00000E+000	1.12990E+000	-1.15088E-004	11	...........	-327.56
	608	609	1.13664E+000	2.75595E-001	0.00000E+000	1.13790E+000	-1.14371E-004	12	...........	-327.56
	616	617	1.14456E+000	2.91079E-001	0.00000E+000	1.14590E+000	-1.18555E-004	12	...........	-327.56
	624	625	1.15257E+000	3.08139E-001	0.00000E+000	1.15390E+000	-1.18405E-004	12	...........	-327.56
	632	633	1.16059E+000	3.24852E-001	0.00000E+000	1.16190E+000	-1.15121E-004	12	...........	-327.56
	640	641	1.16849E+000	3.40957E-001	0.00000E+000	1.16990E+000	-1.18855E-004	12	...........	-327.56
	648	649	1.17651E+000	3.59802E-001	0.00000E+000	1.17790E+000	-1.17571E-004	12	...........	-327.56
	656	657	1.18456E+000	3.77616E-001	0.00000E+000	1.18590E+000	-1.18438E-004	12	...........	-327.56
	664	665	1.19242E+000	3.98809E-001	0.00000E+000	1.19390E+000	-1.20405E-004	12	...........	-327.56
	672	673	1.20043E+000	4.25866E-001	0.00000E+000	1.20190E+000	-1.16221E-004	12	...........	-327.56
	680	681	1.20848E+000	4.47996E-001	0.00000E+000	1.20990E+000	-1.19721E-004	12	...........	-327.56
	688	689	1.21635E+000	4.66736E-001	0.00000E+000	1.21790E+000	-1.18505E-004	12	...........	-327.56
	696	697	1.22438E+000	4.87383E-001	0.00000E+000	1.22590E+000	-1.16505E-004	12	...........	-327.56
	704	705	1.23242E+000	5.01971E-001	0.00000E+000	1.23390E+000	-1.18438E-004	12	...........	-327.56
	712	713	1.24040E+000	5.24167E-001	0.00000E+000	1.24190E+000	-1.19471E-004	12	...........	-327.56
	720	721	1.24831E+000	5.48970E-001	0.00000E+000	1.24990E+000	-1.18055E-004	12	...........	-327.56
	728	729	1.25635E+000	5.75477E-001	0.00000E+000	1.25790E+000	-1.16571E-004	12	...........	-327.56
	736	737	1.26436E+000	6.07025E-001	0.00000E+000	1.26590E+000	-1.18371E-004	12	...........	-327.56
	744	745	1.27224E+000	6.39155E-001	0.00000E+000	1.27390E+000	-1.21938E-004	12	...........	-327.56
	752	753	1.28025E+000	6.68123E-001	0.00000E+000	1.28190E+000	-1.20971E-004	12	...........	-327.56
	760	761	1.28826E+000	6.99339E-001	0.00000E+000	1.28990E+000	-1.13971E-004	12	...........	-327.56
	768	769	1.29616E+000	7.25578E-001	0.00000E+000	1.29790E+000	-1.15921E-004	12	...........	-327.56
	776	777	1.30418E+000	7.53577E-001	0.00000E+000	1.30590E+000	-1.20738E-004	12	...........	-327.56
	784	785	1.31220E+000	7.85292E-001	0.00000E+000	1.31390E+000	-1.18421E-004	12	...........	-327.56
	792	793	1.32007E+000	8.14112E-001	0.00000E+000	1.32190E+000	-1.23921E-004	12	...........	-327.56
	800	801	1.32811E+000	8.41487E-001	0.00000E+000	1.32990E+000	-1.20905E-004	12	...........	-327.56
	808	809	1.33606E+000	8.74092E-001	0.00000E+000	1.33790E+000	-1.16971E-004	12	...........	-327.56
	816	817	1.34402E+000	9.09395E-001	0.00000E+000	1.34590E+000	-1.21421E-004	12	...........	-327.56
	824	825	1.35197E+000	9.45246E-001	0.00000E+000	1.35390E+000	-1.22771E-004	12	...........	-327.56
	832	833	1.35999E+000	9.72264E-001	0.00000E+000	1.36190E+000	-1.20271E-004	12	...........	-327.56
	840	841	1.36797E+000	1.00942E+000	0.00000E+000	1.36990E+000	-1.22671E-004	12	...........	-327.56
	848	849	1.37593E+000	1.03296E+000	0.00000E+000	1.37790E+000	-1.21638E-004	12	...........	-327.56
	856	857	1.38393E+000	1.05848E+000	0.00000E+000	1.38590E+000	-1.22288E-004	12	...........	-327.56
	864	865	1.39192E+000	1.08993E+000	0.00000E+000	1.39390E+000	-1.17671E-004	12	...........	-327.56
	872	873	1.39990E+000	1.11134E+000	0.00000E+000	1.40190E+000	-1.22821E-004	12	...........	-327.56
	880	881	1.40789E+000	1.13530E+000	0.00000E+000	1.40990E+000	-1.20388E-004	12	...........	-327.56
	888	889	1.41589E+000	1.16277E+000	0.00000E+000	1.41790E+000	-1.20921E-004	12	...........	-327.56
	896	897	1.42385E+000	1.18001E+000	0.00000E+000	1.42590E+000	-1.23255E-004	12	...........	-327.56
	904	905	1.43185E+000	1.20543E+000	0.00000E+000	1.43390E+000	-1.21855E-004	12	...........	-327.56
	912	913	1.43980E+000	1.23546E+000	0.00000E+000	1.44190E+000	-1.18521E-004	12	...........	-327.56
	920	921	1.44771E+000	1.26131E+000	0.00000E+000	1.44990E+000	-1.21421E-004	12	...........	-327.56
	928	929	1.45572E+000	1.28409E+000	0.00000E+000	1.45790E+000	-1.22455E-004	12	...........	-327.56
	936	937	1.46375E+000	1.31498E+000	0.00000E+000	1.46590E+000	-1.19088E-004	12	...........	-327.56
	944	945	1.47172E+000	1.33858E+000	0.00000E+000	1.47390E+000	-1.17505E-004	12	...........	-327.56
	952	953	1.47966E+000	1.36243E+000	0.00000E+000	1.48190E+000	-1.23871E-004	12	...........	-327.56
	960	961	1.48768E+000	1.38900E+000	0.00000E+000	1.48990E+000	-1.20188E-004	12	...........	-327.56
	968	969	1.49568E+000	1.40963E+000	0.00000E+000	1.49790E+000	-1.21171E-004	12	...........	-327.56
	976	977	1.50360E+000	1.42619E+000	0.00000E+000	1.50590E+000	-1.21238E-004	12	...........	-327.56
	984	985	1.51163E+000	1.45608E+000	0.00000E+000	1.51390E+000	-1.20588E-004	12	...........	-327.56
	992	993	1.51964E+000	1.48365E+000	0.00000E+000	1.52190E+000	-1.17371E-004	12	...........	-327.56
	1000	1001	1.52755E+000	1.50448E+000	0.00000E+000	1.52990E+000	-1.20955E-004	12	...........	-327.56
	1008	1009	1.53558E+000	1.52541E+000	0.00000E+000	1.53790E+000	-1.19571E-004	12	...........	-327.56
	1016	1017	1.54355E+000	1.55141E+000	0.00000E+000	1.54590E+000	-1.21838E-004	12	...........	-327.56
	1024	1025	1.55147E+000	1.56567E+000	0.00000E+000	1.55390E+000	-1.17721E-004	12	...........	-327.56
	1032	1033	1.55949E+000	1.57919E+000	0.00000E+000	1.56190E+000	-1.17005E-004	12	...........	-327.56
	1040	1041	1.56751E+000	1.60223E+000	0.00000E+000	1.56990E+000	-1.20505E-004	12	...........	-327.56
	1048	1049	1.57542E+000	1.62719E+000	0.00000E+000	1.57790E+000	-1.21621E-004	12	...........	-327.56
	1056	1057	1.58346E+000	1.66021E+000	0.00000E+000	1.58590E+000	-1.21221E-004	12	...........	-327.56
	1064	1065	1.59147E+000	1.68336E+000	0.00000E+000	1.59390E+000	-1.17788E-004	12	...........	-327.56
	1072	1073	1.59944E+000	1.71284E+000	0.00000E+000	1.60190E+000	-1.19671E-004	12	...........	-327.56
	1080	1081	1.60741E+000	1.75221E+000	0.00000E+000	1.60990E+000	-1.22121E-004	12	...........	-327.56
	1088	1089	1.61544E+000	1.77419E+000	0.00000E+000	1.61790E+000	-1.18921E-004	12	...........	-327.56
	1096	1097	1.62343E+000	1.79122E+000	0.00000E+000	1.62590E+000	-1.19455E-004	12	...........	-327.56
	1104	1105	1.63138E+000	1.83043E+000	0.00000E+000	1.63390E+000	-1.18871E-004	12	...........	-327.56
	1112	1113	1.63938E+000	1.86920E+000	0.00000E+000	1.64190E+000	-1.19488E-004	12	...........	-327.56
	1120	1121	1.64739E+000	1.89245E+000	0.00000E+000	1.64990E+000	-1.21805E-004	12	...........	-327.56
	1128	1129	1.65533E+000	1.91456E+000	0.00000E+000	1.65790E+000	-1.19721E-004	12	...........	-327.56
	1136	1137	1.66334E+000	1.93230E+000	0.00000E+000	1.66590E+000	-1.18305E-004	12	...........	-327.56
	1144	1145	1.67137E+000	1.96008E+000	0.00000E+000	1.67390E+000	-1.19471E-004	12	...........	-327.56
	1152	1153	1.67926E+000	2.00380E+000	0.00000E+000	1.68190E+000	-1.18088E-004	12	...........	-327.56
	1160	1161	1.68731E+000	2.02991E+000	0.00000E+000	1.68990E+000	-1.16955E-004	12	...........	-327.56
	1168	1169	1.69533E+000	2.05431E+000	0.00000E+000	1.69790E+000	-1.16821E-004	12	...........	-327.56
	1176	1177	1.69134E+000	2.04664E+000	0.00000E+000	1.69390E+000	-1.20888E-004	12	...........	-327.56
	1184	1185	1.68331E+000	2.00217E+000	0.00000E+000	1.68590E+000	-1.19105E-004	12	...........	-327.56
	1192	1193	1.67536E+000	1.98766E+000	0.00000E+000	1.67790E+000	-1.17171E-004	12	...........	-327.56
	1200	1201	1.66736E+000	1.96811E+000	0.00000E+000	1.66990E+000	-1.18238E-004	12	...........	-327.56
	1208	1209	1.65935E+000	1.93156E+000	0.00000E+000	1.66190E+000	-1.19788E-004	12	...........	-327.56
	1216	1217	1.65134E+000	1.91020E+000	0.00000E+000	1.65390E+000	-1.18321E-004	12	...........	-327.56
	1224	1225	1.64340E+000	1.87776E+000	0.00000E+000	1.64590E+000	-1.17005E-004	12	...........	-327.56
	1232	1233	1.63537E+000	1.89288E+000	0.00000E+000	1.63790E+000	-1.20138E-004	12	...........	-327.56
	1240	1241	1.62731E+000	1.85907E+000	0.00000E+000	1.62990E+000	-1.18438E-004	12	...........	-327.56
	1248	1249	1.61945E+000	1.81765E+000	0.00000E+000	1.62190E+000	-1.14438E-004	12	...........	-327.56
	1256	1257	1.61141E+000	1.81475E+000	0.00000E+000	1.61390E+000	-1.15288E-004	12	...........	-327.56
	1264	1265	1.60338E+000	1.79829E+000	0.00000E+000	1.60590E+000	-1.16971E-004	12	...........	-327.56
	1272	1273	1.59547E+000	1.76146E+000	0.00000E+000	1.59790E+000	-1.15821E-004	12	...........	-327.56
	1280	1281	1.58745E+000	1.75721E+000	0.00000E+000	1.58990E+000	-1.15171E-004	12	...........	-327.56
	1288	1289	1.57942E+000	1.72823E+000	0.00000E+000	1.58190E+000	-1.17905E-004	12	...........	-327.56
	1296	1297	1.57151E+000	1.70034E+000	0.00000E+000	1.57390E+000	-1.15255E-004	12	...........	-327.56
	1304	1305	1.56352E+000	1.67609E+000	0.00000E+000	1.56590E+000	-1.14871E-004	12	...........	-327.56
	1312	1313	1.55548E+000	1.63457E+000	0.00000E+000	1.55790E+000	-1.16905E-004	12	...........	-327.56
	1320	1321	1.54752E+000	1.64386E+000	0.00000E+000	1.54990E+000	-1.16755E-004	12	...........	-327.56
	1328	1329	1.53953E+000	1.62714E+000	0.00000E+000	1.54190E+000	-1.14488E-004	12	...........	-327.56
	1336	1337	1.53155E+000	1.61422E+000	0.00000E+000	1.53390E+000	-1.13505E-004	12	...........	-327.56
	1344	1345	1.52352E+000	1.57430E+000	0.00000E+000	1.52590E+000	-1.15771E-004	12	...........	-327.56
	1352	1353	1.51562E+000	1.55470E+000	0.00000E+000	1.51790E+000	-1.14505E-004	12	...........	-327.56
	1360	1361	1.50758E+000	1.53985E+000	0.00000E+000	1.50990E+000	-1.13438E-004	12	...........	-327.56
	1368	1369	1.49957E+000	1.51412E+000	0.00000E+000	1.50190E+000	-1.17821E-004	12	...........	-327.56
	1376	1377	1.49164E+000	1.49697E+000	0.00000E+000	1.49390E+000	-1.14955E-004	12	...........	-327.56
	1384	1385	1.48361E+000	1.48179E+000	0.00000E+000	1.48590E+000	-1.14271E-004	12	...........	-327.56
	1392	1393	1.47559E+000	1.46131E+000	0.00000E+000	1.47790E+000	-1.12871E-004	12	...........	-327.56
	1400	1401	1.46770E+000	1.43994E+000	0.00000E+000	1.46990E+000	-1.13455E-004	12	...........	-327.56
	1408	1409	1.45967E+000	1.41599E+000	0.00000E+000	1.46190E+000	-1.11488E-004	12	...........	-327.56
	1416	1417	1.45163E+000	1.39438E+000	0.00000E+000	1.45390E+000	-1.16071E-004	12	...........	-327.56
	1424	1425	1.44373E+000	1.37222E+000	0.00000E+000	1.44590E+000	-1.13388E-004	12	...........	-327.56
	1432	1433	1.43571E+000	1.35601E+000	0.00000E+000	1.43790E+000	-1.10271E-004	12	...........	-327.56
	1440	1441	1.42771E+000	1.33372E+000	0.00000E+000	1.42990E+000	-1.13971E-004	12	...........	-327.56
	1448	1449	1.41979E+000	1.30761E+000	0.00000E+000	1.42190E+000	-1.13221E-004	12	...........	-327.56
	1456	1457	1.41179E+000	1.28451E+000	0.00000E+000	1.41390E+000	-1.13355E-004	12	...........	-327.56
	1464	1465	1.40376E+000	1.26259E+000	0.00000E+000	1.40590E+000	-1.14671E-004	12	...........	-327.56
	1472	1473	1.39573E+000	1.23298E+000	0.00000E+000	1.39790E+000	-1.13605E-004	12	...........	-327.56
	1480	1481	1.38783E+000	1.21428E+000	0.00000E+000	1.38990E+000	-1.13405E-004	12	...........	-327.56
	1488	1489	1.37981E+000	1.18741E+000	0.00000E+000	1.38190E+000	-1.15805E-004	12	...........	-327.56
	1496	1497	1.37181E+000	1.15388E+000	0.00000E+000	1.37390E+000	-1.19855E-004	12	...........	-327.56
	1504	1505	1.36392E+000	1.12947E+000	0.00000E+000	1.36590E+000	-1.15305E-004	12	...........	-327.56
	1512	1513	1.35587E+000	1.09558E+000	0.00000E+000	1.35790E+000	-1.15155E-004	12	...........	-327.56
	1520	1521	1.34786E+000	1.07365E+000	0.00000E+000	1.34990E+000	-1.16055E-004	12	...........	-327.56
	1528	1529	1.33996E+000	1.04664E+000	0.00000E+000	1.34190E+000	-1.15388E-004	12	...........	-327.56
	1536	1537	1.33195E+000	1.02460E+000	0.00000E+000	1.33390E+000	-1.13371E-004	12	...........	-327.56
	1544	1545	1.32396E+000	1.01547E+000	0.00000E+000	1.32590E+000	-1.15188E-004	12	...........	-327.56
	1552	1553	1.31604E+000	9.91173E-001	0.00000E+000	1.31790E+000	-1.17705E-004	12	...........	-327.56
	1560	1561	1.30804E+000	9.63137E-001	0.00000E+000	1.30990E+000	-1.15005E-004	12	...........	-327.56
	1568	1569	1.30002E+000	9.35576E-001	0.00000E+000	1.30190E+000	-1.14421E-004	12	...........	-327.56
	1576	1577	1.29208E+000	9.21247E-001	0.00000E+000	1.29390E+000	-1.19255E-004	12	...........	-327.56
	1584	1585	1.28412E+000	9.02322E-001	0.00000E+000	1.28590E+000	-1.13438E-004	12	...........	-327.56
	1592	1593	1.27609E+000	8.79696E-001	0.00000E+000	1.27790E+000	-1.13755E-004	12	...........	-327.56
	1600	1601	1.26804E+000	8.60119E-001	0.00000E+000	1.26990E+000	-1.18555E-004	12	...........	-327.56
	1608	1609	1.26018E+000	8.40981E-001	0.00000E+000	1.26190E+000	-1.14738E-004	12	...........	-327.56
	1616	1617	1.25215E+000	8.21902E-001	0.00000E+000	1.25390E+000	-1.15821E-004	12	...........	-327.56
	1624	1625	1.24413E+000	8.00014E-001	0.00000E+000	1.24590E+000	-1.15238E-004	12	...........	-327.56
	1632	1633	1.23622E+000	7.78764E-001	0.00000E+000	1.23790E+000	-1.12405E-004	12	...........	-327.56
	1640	1641	1.22821E+000	7.49494E-001	0.00000E+000	1.22990E+000	-1.10338E-004	12	...........	-327.56
	1648	1649	1.22021E+000	7.27513E-001	0.00000E+000	1.22190E+000	-1.12355E-004	12	...........	-327.56
	1656	1657	1.21227E+000	7.01873E-001	0.00000E+000	1.21390E+000	-1.11338E-004	12	...........	-327.56
	1664	1665	1.20428E+000	6.88679E-001	0.00000E+000	1.20590E+000	-1.15555E-004	12	...........	-327.56
	1672	1673	1.19626E+000	6.70895E-001	0.00000E+000	1.19790E+000	-1.11305E-004	12	...........	-327.56
	1680	1681	1.18832E+000	6.49100E-001	0.00000E+000	1.18990E+000	-1.12055E-004	12	...........	-327.56
	1688	1689	1.18032E+000	6.23407E-001	0.00000E+000	1.18190E+000	-1.11655E-004	12	...........	-327.56
	1696	1697	1.17233E+000	6.01095E-001	0.00000E+000	1.17390E+000	-1.09988E-004	12	...........	-327.56
	1704	1705	1.16438E+000	5.80253E-001	0.00000E+000	1.16590E+000	-1.12688E-004	12	...........	-327.56
	1712	1713	1.15640E+000	5.54381E-001	0.00000E+000	1.15790E+000	-1.13005E-004	12	...........	-327.56
	1720	1721	1.14838E+000	5.31308E-001	0.00000E+000	1.14990E+000	-1.10921E-004	12	...........	-327.56
	1728	1729	1.14036E+000	5.07566E-001	0.00000E+000	1.14190E+000	-1.16488E-004	12	...........	-327.56
	1736	1737	1.13247E+000	4.81979E-001	0.00000E+000	1.13390E+000	-1.13188E-004	12	...........	-327.56
	1744	1745	1.12449E+000	4.54875E-001	0.00000E+000	1.12590E+000	-1.12355E-004	12	...........	-327.56
	1752	1753	1.11652E+000	4.29073E-001	0.00000E+000	1.11790E+000	-1.16105E-004	12	...........	-327.56
	1760	1761	1.10861E+000	4.06805E-001	0.00000E+000	1.10990E+000	-1.16021E-004	12	...........	-327.56
	1768	1769	1.10058E+000	3.82743E-001	0.00000E+000	1.10190E+000	-1.13638E-004	12	...........	-327.56
	1776	1777	1.09262E+000	3.60542E-001	0.00000E+000	1.09390E+000	-1.12921E-004	12	...........	-327.56
	1784	1785	1.08465E+000	3.35424E-001	0.00000E+000	1.08590E+000	-1.11371E-004	12	...........	-327.56
	1792	1793	1.07669E+000	3.12262E-001	0.00000E+000	1.07790E+000	-1.15538E-004	12	...........	-327.56
	1800	1801	1.06869E+000	2.92942E-001	0.00000E+000	1.06990E+000	-1.11905E-004	12	...........	-327.56
	1808	1809	1.06072E+000	2.71674E-001	0.00000E+000	1.06190E+000	-1.14438E-004	12	...........	-327.56
	1816	1817	1.05272E+000	2.50690E-001	0.00000E+000	1.05390E+000	-1.17355E-004	12	...........	-327.56
	1824	1825	1.04443E+000	2.31109E-001	0.00000E+000	1.04590E+000	-1.12121E-004	11	...........	-327.56
	1832	1833	1.03652E+000	2.12231E-001	0.00000E+000	1.03790E+000	-1.10338E-004	11	...........	-327.56
	1840	1841	1.02857E+000	1.93569E-001	0.00000E+000	1.02990E+000	-1.11971E-004	11	...........	-327.56
	1848	1849	1.02062E+000	1.75433E-001	0.00000E+000	1.02190E+000	-1.11338E-004	11	...........	-327.56
	1856	1857	1.01265E+000	1.59147E-001	0.00000E+000	1.01390E+000	-1.14521E-004	11	...........	-327.56
	1864	1865	1.00468E+000	1.44791E-001	0.00000E+000	1.00590E+000	-1.12005E-004	11	...........	-327.56
	1872	1873	9.96697E-001	1.30735E-001	0.00000E+000	9.97900E-001	-1.12821E-004	11	...........	-327.56
	1880	1881	9.88719E-001	1.17847E-001	0.00000E+000	9.89900E-001	-1.13655E-004	11	...........	-327.56
	1888	1889	9.80747E-001	1.09323E-001	0.00000E+000	9.81900E-001	-1.14788E-004	11	...........	-327.56
	1896	1897	9.72744E-001	1.01487E-001	0.00000E+000	9.73900E-001	-1.16305E-004	11	...........	-327.56
	1904	1905	9.64743E-001	9.32607E-002	0.00000E+000	9.65900E-001	-1.17221E-004	11	...........	-327.56
	1912	1913	9.56800E-001	8.81299E-002	0.00000E+000	9.57900E-001	-1.17271E-004	11	...........	-327.56
	1920	1921	9.48802E-001	8.24998E-002	0.00000E+000	9.49900E-001	-1.16238E-004	11	...........	-327.56
	1928	1929	9.40767E-001	7.85389E-002	0.00000E+000	9.41900E-001	-1.13488E-004	11	...........	-327.56
	1936	1937	9.32837E-001	7.50779E-002	0.00000E+000	9.33900E-001	-1.15521E-004	11	...........	-327.56
	1944	1945	9.24844E-001	7.29986E-002	0.00000E+000	9.25900E-001	-1.14938E-004	11	...........	-327.56
	1952	1953	9.16847E-001	7.09672E-002	0.00000E+000	9.17900E-001	-1.15805E-004	11	...........	-327.56
	1960	1961	9.08864E-001	7.03783E-002	0.00000E+000	9.09900E-001	-1.12705E-004	11	...........	-327.56
	1968	1969	9.00908E-001	6.87759E-002	0.00000E+000	9.01900E-001	-1.15721E-004	11	...........	-327.56
	1976	1977	8.92872E-001	6.83819E-002	0.00000E+000	8.93900E-001	-1.13838E-004	11	...........	-327.56
	1984	1985	8.84827E-001	6.75192E-002	0.00000E+000	8.85900E-001	-1.14455E-004	11	...........	-327.56
	1992	1993	8.76927E-001	6.65550E-002	0.00000E+000	8.77900E-001	-1.14988E-004	11	...........	-327.56
	2000	2001	8.68907E-001	6.62783E-002	0.00000E+000	8.69900E-001	-1.16871E-004	11	...........	-327.56
	2008	2009	8.60862E-001	6.62644E-002	0.00000E+000	8.61900E-001	-1.16938E-004	11	...........	-327.56
	2016	2017	8.52958E-001	6.61947E-002	0.00000E+000	8.53900E-001	-1.13755E-004	11	...........	-327.56
	2024	2025	8.44930E-001	6.60890E-002	0.00000E+000	8.45900E-001	-1.12838E-004	11	...........	-327.56
	2032	2033	8.36921E-001	6.65541E-002	0.00000E+000	8.37900E-001	-1.13955E-004	11	...........	-327.56
	2040	2041	8.28974E-001	6.52639E-002	0.00000E+000	8.29900E-001	-1.13238E-004	11	...........	-327.56
	2048	2049	8.20962E-001	6.49482E-002	0.00000E+000	8.21900E-001	-1.16238E-004	11	...........	-327.56
	2056	2057	8.12971E-001	6.43447E-002	0.00000E+000	8.13900E-001	-1.17205E-004	11	...........	-327.56
	2064	2065	8.05028E-001	6.36457E-002	0.00000E+000	8.05900E-001	-1.16055E-004	11	...........	-327.56
	2072	2073	7.97025E-001	6.27552E-002	0.00000E+000	7.97900E-001	-1.15605E-004	11	...........	-327.56
	2080	2081	7.88990E-001	6.34543E-002	0.00000E+000	7.89900E-001	-1.15021E-004	11	...........	-327.56
	2088	2089	7.80968E-001	6.29777E-002	0.00000E+000	7.81900E-001	-1.13138E-004	11	...........	-327.56
	2096	2097	7.73047E-001	6.24928E-002	0.00000E+000	7.73900E-001	-1.16738E-004	11	...........	-327.56
	2104	2105	7.65014E-001	6.25576E-002	0.00000E+000	7.65900E-001	-1.15305E-004	11	...........	-327.56
	2112	2113	7.56967E-001	6.25676E-002	0.00000E+000	7.57900E-001	-1.16671E-004	11	...........	-327.56
	2120	2121	7.49064E-001	6.22859E-002	0.00000E+000	7.49900E-001	-1.14121E-004	11	...........	-327.56
	2128	2129	7.41029E-001	6.13240E-002	0.00000E+000	7.41900E-001	-1.14655E-004	11	...........	-327.56
	2136	2137	7.33017E-001	6.02152E-002	0.00000E+000	7.33900E-001	-1.14588E-004	11	...........	-327.56
	2144	2145	7.25098E-001	5.85998E-002	0.00000E+000	7.25900E-001	-1.14788E-004	11	...........	-327.56
	2152	2153	7.17057E-001	5.61871E-002	0.00000E+000	7.17900E-001	-1.14655E-004	11	...........	-327.56
	2160	2161	7.09091E-001	5.39009E-002	0.00000E+000	7.09900E-001	-1.15088E-004	11	...........	-327.56
	2168	2169	7.01164E-001	5.15798E-002	0.00000E+000	7.01900E-001	-1.14955E-004	11	...........	-327.56
	2176	2177	6.93146E-001	4.98733E-002	0.00000E+000	6.93900E-001	-1.16271E-004	11	...........	-327.56
	2184	2185	6.85100E-001	4.88728E-002	0.00000E+000	6.85900E-001	-1.13238E-004	11	...........	-327.56
	2192	2193	6.77177E-001	4.69525E-002	0.00000E+000	6.77900E-001	-1.17988E-004	11	...........	-327.56
	2200	2201	6.69164E-001	4.60706E-002	0.00000E+000	6.69900E-001	-1.15221E-004	11	...........	-327.56
	2208	2209	6.61129E-001	4.46463E-002	0.00000E+000	6.61900E-001	-1.17355E-004	11	...........	-327.56
	2216	2217	6.53097E-001	4.38533E-002	0.00000E+000	6.53900E-001	-1.17005E-004	11	...........	-327.56
	2224	2225	6.45200E-001	4.20894E-002	0.00000E+000	6.45900E-001	-1.17705E-004	11	...........	-327.56
	2232	2233	6.37153E-001	4.07145E-002	0.00000E+000	6.37900E-001	-1.12288E-004	11	...........	-327.56
	2240	2241	6.29138E-001	3.77447E-002	0.00000E+000	6.29900E-001	-1.17805E-004	11	...........	-327.56
	2248	2249	6.21216E-001	3.61793E-002	0.00000E+000	6.21900E-001	-1.15905E-004	11	...........	-327.56
	2256	2257	6.13208E-001	3.48112E-002	0.00000E+000	6.13900E-001	-1.17738E-004	11	...........	-327.56
	2264	2265	6.05184E-001	3.23925E-002	0.00000E+000	6.05900E-001	-1.16388E-004	11	...........	-327.56
	2272	2273	5.97280E-001	2.98392E-002	0.00000E+000	5.97900E-001	-1.16838E-004	11	...........	-327.56
	2280	2281	5.89235E-001	2.76150E-002	0.00000E+000	5.89900E-001	-1.17621E-004	11	...........	-327.56
	2288	2289	5.81213E-001	2.61795E-002	0.00000E+000	5.81900E-001	-1.16271E-004	11	...........	-327.56
	2296	2297	5.73043E-001	2.29383E-002	0.00000E+000	5.73900E-001	-1.13221E-004	10	...........	-327.56
	2304	2305	5.65071E-001	1.98852E-002	0.00000E+000	5.65900E-001	-1.15738E-004	10	...........	-327.56
	2312	2313	5.57080E-001	1.69306E-002	0.00000E+000	5.57900E-001	-1.13671E-004	10	...........	-327.56
	2320	2321	5.49164E-001	1.45637E-002	0.00000E+000	5.49900E-001	-1.17005E-004	10	...........	-327.56
	2328	2329	5.41176E-001	1.29800E-002	0.00000E+000	5.41900E-001	-1.15471E-004	10	...........	-327.56
	2336	2337	5.33168E-001	1.06832E-002	0.00000E+000	5.33900E-001	-1.16188E-004	10	...........	-327.56
	2344	2345	5.25159E-001	8.08970E-003	0.00000E+000	5.25900E-001	-1.16338E-004	10	...........	-327.56
	2352	2353	5.17311E-001	5.10165E-003	0.00000E+000	5.17900E-001	-1.14155E-004	10	...........	-327.56
	2360	2361	5.09353E-001	2.64855E-003	0.00000E+000	5.09900E-001	-1.18238E-004	10	...........	-327.56
	2368	2369	5.01342E-001	3.17435E-005	0.00000E+000	5.01900E-001	-1.20721E-004	9	...........	-327.56
	2376	2377	4.93793E-001	-2.79587E-003	0.00000E+000	4.93900E-001	-9.97881E-005	9	...........	-327.56
	2384	2385	4.85474E-001	-6.39383E-003	0.00000E+000	4.85900E-001	-1.15655E-004	10	...........	-327.56
	2392	2393	4.77500E-001	-1.00207E-002	0.00000E+000	4.77900E-001	-1.12455E-004	10	...........	-327.56
	2400	2401	4.69613E-001	-1.26038E-002	0.00000E+000	4.69900E-001	-1.17738E-004	10	...........	-327.56
	2408	2409	4.61604E-001	-1.59452E-002	0.00000E+000	4.61900E-001	-1.13271E-004	10	...........	-327.56
	2416	2417	4.53647E-001	-1.93230E-002	0.00000E+000	4.53900E-001	-1.10305E-004	10	...........	-327.56
	2424	2425	4.45772E-001	-2.29895E-002	0.00000E+000	4.45900E-001	-1.07071E-004	10	...........	-327.56
	2432	2433	4.37811E-001	-2.61619E-002	0.00000E+000	4.37900E-001	-1.04205E-004	10	...........	-327.56
	2440	2441	4.29461E-001	-3.05679E-002	0.00000E+000	4.29900E-001	-1.14971E-004	11	...........	-327.56
	2448	2449	4.21511E-001	-3.33707E-002	0.00000E+000	4.21900E-001	-1.18138E-004	11	...........	-327.56
	2456	2457	4.13533E-001	-3.70211E-002	0.00000E+000	4.13900E-001	-1.15655E-004	11	...........	-327.56
	2464	2465	4.05503E-001	-4.14191E-002	0.00000E+000	4.05900E-001	-1.15221E-004	11	...........	-327.56
	2472	2473	3.97453E-001	-4.44806E-002	0.00000E+000	3.97900E-001	-1.17921E-004	11	...........	-327.56
	2480	2481	3.89560E-001	-4.79602E-002	0.00000E+000	3.89900E-001	-1.16038E-004	11	...........	-327.56
	2488	2489	3.81525E-001	-5.16264E-002	0.00000E+000	3.81900E-001	-1.16555E-004	11	...........	-327.56
	2496	2497	3.73509E-001	-5.50067E-002	0.00000E+000	3.73900E-001	-1.16971E-004	11	...........	-327.56
	2504	2505	3.65585E-001	-5.85325E-002	0.00000E+000	3.65900E-001	-1.18355E-004	11	...........	-327.56
	2512	2513	3.57564E-001	-6.15679E-002	0.00000E+000	3.57900E-001	-1.18255E-004	11	...........	-327.56
	2520	2521	3.49554E-001	-6.40365E-002	0.00000E+000	3.49900E-001	-1.18671E-004	11	...........	-327.56
	2528	2529	3.41635E-001	-6.66309E-002	0.00000E+000	3.41900E-001	-1.18038E-004	11	...........	-327.56
	2536	2537	3.33604E-001	-6.93526E-002	0.00000E+000	3.33900E-001	-1.18088E-004	11	...........	-327.56
	2544	2545	3.25581E-001	-7.25829E-002	0.00000E+000	3.25900E-001	-1.17905E-004	11	...........	-327.56
	2552	2553	3.17648E-001	-7.51655E-002	0.00000E+000	3.17900E-001	-1.19905E-004	11	...........	-327.56
	2560	2561	3.09644E-001	-7.84796E-002	0.00000E+000	3.09900E-001	-1.20355E-004	11	...........	-327.56
	2568	2569	3.01659E-001	-8.32119E-002	0.00000E+000	3.01900E-001	-1.17088E-004	11	...........	-327.56
	2576	2577	2.93728E-001	-8.69887E-002	0.00000E+000	2.93900E-001	-1.20788E-004	11	...........	-327.56
	2584	2585	2.85733E-001	-9.16935E-002	0.00000E+000	2.85900E-001	-1.20888E-004	11	...........	-327.56
	2592	2593	2.77696E-001	-9.62171E-002	0.00000E+000	2.77900E-001	-1.20921E-004	11	...........	-327.56
	2600	2601	2.69661E-001	-9.89237E-002	0.00000E+000	2.69900E-001	-1.20355E-004	11	...........	-327.56
	2608	2609	2.61778E-001	-1.02371E-001	0.00000E+000	2.61900E-001	-1.20588E-004	11	...........	-327.56
	2616	2617	2.53762E-001	-1.07436E-001	0.00000E+000	2.53900E-001	-1.22988E-004	11	...........	-327.56
	2624	2625	2.45736E-001	-1.11373E-001	0.00000E+000	2.45900E-001	-1.19488E-004	11	...........	-327.56
	2632	2633	2.37817E-001	-1.14804E-001	0.00000E+000	2.37900E-001	-1.22355E-004	11	...........	-327.56
	2640	2641	2.29783E-001	-1.18130E-001	0.00000E+000	2.29900E-001	-1.20221E-004	11	...........	-327.56
	2648	2649	2.21782E-001	-1.20164E-001	0.00000E+000	2.21900E-001	-1.20338E-004	11	...........	-327.56
	2656	2657	2.13839E-001	-1.21644E-001	0.00000E+000	2.13900E-001	-1.17705E-004	11	...........	-327.56
	2664	2665	2.05830E-001	-1.25089E-001	0.00000E+000	2.05900E-001	-1.19171E-004	11	...........	-327.56
	2672	2673	1.97826E-001	-1.27525E-001	0.00000E+000	1.97900E-001	-1.22655E-004	11	...........	-327.56
	2680	2681	1.89877E-001	-1.30659E-001	0.00000E+000	1.89900E-001	-1.20755E-004	11	...........	-327.56
	2688	2689	1.81872E-001	-1.32662E-001	0.00000E+000	1.81900E-001	-1.20971E-004	11	...........	-327.56
	2696	2697	1.73845E-001	-1.36039E-001	0.00000E+000	1.73900E-001	-1.24855E-004	11	...........	-327.56
	2704	2705	1.65881E-001	-1.39931E-001	0.00000E+000	1.65900E-001	-1.20288E-004	11	...........	-327.56
	2712	2713	1.57913E-001	-1.44479E-001	0.00000E+000	1.57900E-001	-1.21038E-004	11	...........	-327.56
	2720	2721	1.49891E-001	-1.48895E-001	0.00000E+000	1.49900E-001	-1.20588E-004	11	...........	-327.56
	2728	2729	1.41860E-001	-1.54769E-001	0.00000E+000	1.41900E-001	-1.23338E-004	11	...........	-327.56
	2736	2737	1.33966E-001	-1.59850E-001	0.00000E+000	1.33900E-001	-1.18588E-004	11	...........	-327.56
	2744	2745	1.25927E-001	-1.64811E-001	0.00000E+000	1.25900E-001	-1.21121E-004	11	...........	-327.56
	2752	2753	1.17913E-001	-1.70630E-001	0.00000E+000	1.17900E-001	-1.19555E-004	11	...........	-327.56
	2760	2761	1.10005E-001	-1.76668E-001	0.00000E+000	1.09900E-001	-1.18021E-004	11	...........	-327.56
	2768	2769	1.02011E-001	-1.83467E-001	0.00000E+000	1.01900E-001	-1.18421E-004	11	...........	-327.56
	2776	2777	9.40161E-002	-1.90521E-001	0.00000E+000	9.39000E-002	-1.17121E-004	11	...........	-327.56
	2784	2785	8.60991E-002	-1.98275E-001	0.00000E+000	8.59000E-002	-1.14655E-004	11	...........	-327.56
	2792	2793	7.80890E-002	-2.06659E-001	0.00000E+000	7.79000E-002	-1.14188E-004	11	...........	-327.56
	2800	2801	7.00931E-002	-2.15704E-001	0.00000E+000	6.99000E-002	-1.13471E-004	11	...........	-327.56
	2808	2809	6.21712E-002	-2.24456E-001	0.00000E+000	6.19000E-002	-1.10838E-004	11	...........	-327.56
	2816	2817	5.41715E-002	-2.33165E-001	0.00000E+000	5.39000E-002	-1.12138E-004	11	...........	-327.56
	2824	2825	4.61882E-002	-2.40061E-001	0.00000E+000	4.59000E-002	-1.10521E-004	11	...........	-327.56
	2832	2833	3.82257E-002	-2.45055E-001	0.00000E+000	3.79000E-002	-1.05888E-004	11	...........	-327.56
	2840	2841	3.02371E-002	-2.47790E-001	0.00000E+000	2.99000E-002	-1.09955E-004	11	...........	-327.56
	2848	2849	2.22248E-002	-2.49012E-001	0.00000E+000	2.19000E-002	-1.07788E-004	11	...........	-327.56
	2856	2857	1.41862E-002	-2.52059E-001	0.00000E+000	1.39000E-002	-1.05805E-004	11	...........	-327.56
	2864	2865	6.26201E-003	-2.55178E-001	0.00000E+000	5.90003E-003	-1.04821E-004	11	...........	-327.56
	2872	2873	-1.57278E-003	-2.59490E-001	0.00000E+000	-2.09996E-003	-1.08571E-004	11	...........	-327.56
	2880	2881	-9.60956E-003	-2.62625E-001	0.00000E+000	-1.01000E-002	-1.06738E-004	11	...........	-327.56
	2888	2889	-1.75107E-002	-2.62360E-001	0.00000E+000	-1.81000E-002	-1.07271E-004	11	...........	-327.56
	2896	2897	-2.55753E-002	-2.59100E-001	0.00000E+000	-2.61000E-002	-1.08805E-004	11	...........	-327.56
	2904	2905	-3.36021E-002	-2.50916E-001	0.00000E+000	-3.41000E-002	-1.10121E-004	11	...........	-327.56
	2912	2913	-4.15561E-002	-2.36512E-001	0.00000E+000	-4.21000E-002	-1.11038E-004	11	...........	-327.56
	2920	2921	-4.96130E-002	-2.16090E-001	0.00000E+000	-5.01000E-002	-1.14655E-004	11	...........	-327.56
	2928	2929	-5.76637E-002	-1.93867E-001	0.00000E+000	-5.81000E-002	-1.18638E-004	11	...........	-327.56
	2936	2937	-6.56352E-002	-1.76368E-001	0.00000E+000	-6.61000E-002	-1.21571E-004	11	...........	-327.56
	2944	2945	-7.36593E-002	-1.62892E-001	0.00000E+000	-7.41000E-002	-1.21388E-004	11	...........	-327.56
	2952	2953	-8.16806E-002	-1.53119E-001	0.00000E+000	-8.20999E-002	-1.24655E-004	11	...........	-327.56
	2960	2961	-8.96736E-002	-1.45973E-001	0.00000E+000	-9.01000E-002	-1.19805E-004	11	...........	-327.56
	2968	2969	-9.76809E-002	-1.38409E-001	0.00000E+000	-9.81000E-002	-1.25288E-004	11	...........	-327.56
	2976	2977	-1.05666E-001	-1.34312E-001	0.00000E+000	-1.06100E-001	-1.25821E-004	11	...........	-327.56
	2984	2985	-1.13674E-001	-1.32319E-001	0.00000E+000	-1.14100E-001	-1.23138E-004	11	...........	-327.56
	2992	2993	-1.21646E-001	-1.29879E-001	0.00000E+000	-1.22100E-001	-1.23821E-004	11	...........	-327.56
[...]
	10003	10004	5.31810E-001	9.70219E-001	0.00000E+000	5.33000E-001	-1.21238E-004	12	...........	-327.56
	10009	10010	5.37815E-001	9.79918E-001	0.00000E+000	5.39000E-001	-1.25805E-004	12	...........	-327.56
	10015	10016	5.43838E-001	9.90754E-001	0.00000E+000	5.45000E-001	-1.21488E-004	12	...........	-327.56
	10021	10022	5.49822E-001	9.98688E-001	0.00000E+000	5.51000E-001	-1.23905E-004	12	...........	-327.56
	10027	10028	5.55768E-001	1.00799E+000	0.00000E+000	5.57000E-001	-1.23788E-004	12	...........	-327.56
	10033	10034	5.61784E-001	1.01700E+000	0.00000E+000	5.63000E-001	-1.24271E-004	12	...........	-327.56
	10039	10040	5.67809E-001	1.02817E+000	0.00000E+000	5.69000E-001	-1.22355E-004	12	...........	-327.56
	10045	10046	5.73790E-001	1.03637E+000	0.00000E+000	5.75000E-001	-1.22938E-004	12	...........	-327.56
	10051	10052	5.79710E-001	1.04483E+000	0.00000E+000	5.81000E-001	-1.24721E-004	12	...........	-327.56
	10057	10058	5.85735E-001	1.05560E+000	0.00000E+000	5.87000E-001	-1.24721E-004	12	...........	-327.56
	10063	10064	5.91762E-001	1.06876E+000	0.00000E+000	5.93000E-001	-1.22805E-004	12	...........	-327.56
	10069	10070	5.97776E-001	1.07811E+000	0.00000E+000	5.99000E-001	-1.24605E-004	12	...........	-327.56
	10075	10076	6.03663E-001	1.08811E+000	0.00000E+000	6.05000E-001	-1.24971E-004	12	...........	-327.56
	10081	10082	6.09701E-001	1.09903E+000	0.00000E+000	6.11000E-001	-1.26671E-004	12	...........	-327.56
	10087	10088	6.15691E-001	1.11023E+000	0.00000E+000	6.17000E-001	-1.24371E-004	12	...........	-327.56
	10093	10094	6.21705E-001	1.12100E+000	0.00000E+000	6.23000E-001	-1.27588E-004	12	...........	-327.56
	10099	10100	6.27592E-001	1.12985E+000	0.00000E+000	6.29000E-001	-1.23688E-004	12	...........	-327.56
	10105	10106	6.33647E-001	1.14156E+000	0.00000E+000	6.35000E-001	-1.24155E-004	12	...........	-327.56
	10111	10112	6.39621E-001	1.15286E+000	0.00000E+000	6.41000E-001	-1.20571E-004	12	...........	-327.56
	10117	10118	6.45664E-001	1.16595E+000	0.00000E+000	6.47000E-001	-1.23488E-004	12	...........	-327.56
	10123	10124	6.51674E-001	1.17764E+000	0.00000E+000	6.53000E-001	-1.23755E-004	12	...........	-327.56
	10129	10130	6.57577E-001	1.18964E+000	0.00000E+000	6.59000E-001	-1.26721E-004	12	...........	-327.56
	10135	10136	6.63591E-001	1.20170E+000	0.00000E+000	6.65000E-001	-1.22271E-004	12	...........	-327.56
	10141	10142	6.69612E-001	1.21324E+000	0.00000E+000	6.71000E-001	-1.24771E-004	12	...........	-327.56
	10147	10148	6.75616E-001	1.22639E+000	0.00000E+000	6.77000E-001	-1.21105E-004	12	...........	-327.56
	10153	10154	6.81547E-001	1.23671E+000	0.00000E+000	6.83000E-001	-1.22755E-004	12	...........	-327.56
	10159	10160	6.87539E-001	1.25080E+000	0.00000E+000	6.89000E-001	-1.27588E-004	12	...........	-327.56
	10165	10166	6.93575E-001	1.26340E+000	0.00000E+000	6.95000E-001	-1.25038E-004	12	...........	-327.56
	10171	10172	6.99587E-001	1.27003E+000	0.00000E+000	7.01000E-001	-1.28088E-004	12	...........	-327.56
	10177	10178	7.05537E-001	1.28207E+000	0.00000E+000	7.07000E-001	-1.29255E-004	12	...........	-327.56
	10183	10184	7.11518E-001	1.29430E+000	0.00000E+000	7.13000E-001	-1.25471E-004	12	...........	-327.56
	10189	10190	7.17488E-001	1.30488E+000	0.00000E+000	7.19000E-001	-1.20405E-004	12	...........	-327.56
	10195	10196	7.23501E-001	1.31698E+000	0.00000E+000	7.25000E-001	-1.24005E-004	12	...........	-327.56
	10201	10202	7.29501E-001	1.32467E+000	0.00000E+000	7.31000E-001	-1.22088E-004	12	...........	-327.56
	10207	10208	7.35429E-001	1.33682E+000	0.00000E+000	7.37000E-001	-1.26738E-004	12	...........	-327.56
	10213	10214	7.41435E-001	1.34755E+000	0.00000E+000	7.43000E-001	-1.22155E-004	12	...........	-327.56
	10219	10220	7.47477E-001	1.35788E+000	0.00000E+000	7.49000E-001	-1.24155E-004	12	...........	-327.56
	10225	10226	7.53485E-001	1.36427E+000	0.00000E+000	7.55000E-001	-1.24755E-004	12	...........	-327.56
	10231	10232	7.59412E-001	1.37160E+000	0.00000E+000	7.61000E-001	-1.25288E-004	12	...........	-327.56
	10237	10238	7.65413E-001	1.38244E+000	0.00000E+000	7.67000E-001	-1.19038E-004	12	...........	-327.56
	10243	10244	7.71431E-001	1.39164E+000	0.00000E+000	7.73000E-001	-1.26055E-004	12	...........	-327.56
	10249	10250	7.77452E-001	1.40082E+000	0.00000E+000	7.79000E-001	-1.19205E-004	12	...........	-327.56
	10255	10256	7.83356E-001	1.41006E+000	0.00000E+000	7.85000E-001	-1.24488E-004	12	...........	-327.56
	10261	10262	7.89389E-001	1.41302E+000	0.00000E+000	7.91000E-001	-1.24438E-004	12	...........	-327.56
	10267	10268	7.95406E-001	1.41925E+000	0.00000E+000	7.97000E-001	-1.26755E-004	12	...........	-327.56
	10273	10274	8.01433E-001	1.42665E+000	0.00000E+000	8.03000E-001	-1.22405E-004	12	...........	-327.56
	10279	10280	8.07303E-001	1.42619E+000	0.00000E+000	8.09000E-001	-1.26105E-004	12	...........	-327.56
	10285	10286	8.13362E-001	1.42519E+000	0.00000E+000	8.15000E-001	-1.23005E-004	12	...........	-327.56
	10291	10292	8.19334E-001	1.42089E+000	0.00000E+000	8.21000E-001	-1.25305E-004	12	...........	-327.56
	10297	10298	8.25376E-001	1.41238E+000	0.00000E+000	8.27000E-001	-1.20588E-004	12	...........	-327.56
	10303	10304	8.31346E-001	1.40528E+000	0.00000E+000	8.33000E-001	-1.26188E-004	12	...........	-327.56
	10309	10310	8.37303E-001	1.39866E+000	0.00000E+000	8.39000E-001	-1.21055E-004	12	...........	-327.56
	10315	10316	8.43334E-001	1.39351E+000	0.00000E+000	8.45000E-001	-1.22621E-004	12	...........	-327.56
	10321	10322	8.49357E-001	1.38553E+000	0.00000E+000	8.51000E-001	-1.19055E-004	12	...........	-327.56
	10327	10328	8.55371E-001	1.38005E+000	0.00000E+000	8.57000E-001	-1.21271E-004	12	...........	-327.56
	10333	10334	8.61273E-001	1.37201E+000	0.00000E+000	8.63000E-001	-1.23455E-004	12	...........	-327.56
	10339	10340	8.67327E-001	1.36532E+000	0.00000E+000	8.69000E-001	-1.22405E-004	12	...........	-327.56
	10345	10346	8.73359E-001	1.35835E+000	0.00000E+000	8.75000E-001	-1.20988E-004	12	...........	-327.56
	10351	10352	8.79357E-001	1.35515E+000	0.00000E+000	8.81000E-001	-1.25838E-004	12	...........	-327.56
	10357	10358	8.85252E-001	1.35015E+000	0.00000E+000	8.87000E-001	-1.24721E-004	12	...........	-327.56
	10363	10364	8.91318E-001	1.34276E+000	0.00000E+000	8.93000E-001	-1.27055E-004	12	...........	-327.56
	10369	10370	8.97336E-001	1.33834E+000	0.00000E+000	8.99000E-001	-1.23421E-004	12	...........	-327.56
	10375	10376	9.03342E-001	1.33485E+000	0.00000E+000	9.05000E-001	-1.25271E-004	12	...........	-327.56
	10381	10382	9.09246E-001	1.32950E+000	0.00000E+000	9.11000E-001	-1.22621E-004	12	...........	-327.56
	10387	10388	9.15301E-001	1.32263E+000	0.00000E+000	9.17000E-001	-1.24971E-004	12	...........	-327.56
	10393	10394	9.21293E-001	1.31968E+000	0.00000E+000	9.23000E-001	-1.22238E-004	12	...........	-327.56
	10399	10400	9.27294E-001	1.30906E+000	0.00000E+000	9.29000E-001	-1.21771E-004	12	...........	-327.56
	10405	10406	9.33299E-001	1.29977E+000	0.00000E+000	9.35000E-001	-1.19071E-004	12	...........	-327.56
	10411	10412	9.39241E-001	1.29047E+000	0.00000E+000	9.41000E-001	-1.26938E-004	12	...........	-327.56
	10417	10418	9.45255E-001	1.28073E+000	0.00000E+000	9.47000E-001	-1.23238E-004	12	...........	-327.56
	10423	10424	9.51287E-001	1.27089E+000	0.00000E+000	9.53000E-001	-1.25155E-004	12	...........	-327.56
	10429	10430	9.57319E-001	1.25828E+000	0.00000E+000	9.59000E-001	-1.20905E-004	12	...........	-327.56
	10435	10436	9.63213E-001	1.24999E+000	0.00000E+000	9.65000E-001	-1.23721E-004	12	...........	-327.56
	10441	10442	9.69264E-001	1.23735E+000	0.00000E+000	9.71000E-001	-1.22355E-004	12	...........	-327.56
	10447	10448	9.75300E-001	1.22037E+000	0.00000E+000	9.77000E-001	-1.23738E-004	12	...........	-327.56
	10453	10454	9.81308E-001	1.21071E+000	0.00000E+000	9.83000E-001	-1.20038E-004	12	...........	-327.56
	10459	10460	9.87197E-001	1.19508E+000	0.00000E+000	9.89000E-001	-1.25121E-004	12	...........	-327.56
	10465	10466	9.93268E-001	1.17640E+000	0.00000E+000	9.95000E-001	-1.25138E-004	12	...........	-327.56
	10471	10472	9.99299E-001	1.16043E+000	0.00000E+000	1.00100E+000	-1.21188E-004	12	...........	-327.56
	10477	10478	1.00534E+000	1.14464E+000	0.00000E+000	1.00700E+000	-1.21738E-004	12	...........	-327.56
	10483	10484	1.01130E+000	1.12206E+000	0.00000E+000	1.01300E+000	-1.23655E-004	12	...........	-327.56
	10489	10490	1.01730E+000	1.09594E+000	0.00000E+000	1.01900E+000	-1.21605E-004	12	...........	-327.56
	10495	10496	1.02331E+000	1.07008E+000	0.00000E+000	1.02500E+000	-1.23805E-004	12	...........	-327.56
	10501	10502	1.02935E+000	1.04365E+000	0.00000E+000	1.03100E+000	-1.22521E-004	12	...........	-327.56
	10507	10508	1.03536E+000	1.01525E+000	0.00000E+000	1.03700E+000	-1.23355E-004	12	...........	-327.56
	10513	10514	1.04130E+000	9.93554E-001	0.00000E+000	1.04300E+000	-1.25671E-004	12	...........	-327.56
	10519	10520	1.04734E+000	9.65428E-001	0.00000E+000	1.04900E+000	-1.23071E-004	12	...........	-327.56
	10525	10526	1.05340E+000	9.37904E-001	0.00000E+000	1.05500E+000	-1.19221E-004	12	...........	-327.56
	10531	10532	1.05943E+000	9.10210E-001	0.00000E+000	1.06100E+000	-1.21905E-004	12	...........	-327.56
	10537	10538	1.06540E+000	8.84809E-001	0.00000E+000	1.06700E+000	-1.19538E-004	12	...........	-327.56
	10543	10544	1.07139E+000	8.59368E-001	0.00000E+000	1.07300E+000	-1.21455E-004	12	...........	-327.56
	10549	10550	1.07743E+000	8.34382E-001	0.00000E+000	1.07900E+000	-1.17588E-004	12	...........	-327.56
	10555	10556	1.08346E+000	8.08768E-001	0.00000E+000	1.08500E+000	-1.20371E-004	12	...........	-327.56
	10561	10562	1.08947E+000	7.81273E-001	0.00000E+000	1.09100E+000	-1.23405E-004	12	...........	-327.56
	10567	10568	1.09543E+000	7.57083E-001	0.00000E+000	1.09700E+000	-1.21755E-004	12	...........	-327.56
	10573	10574	1.10147E+000	7.34544E-001	0.00000E+000	1.10300E+000	-1.19471E-004	12	...........	-327.56
	10579	10580	1.10752E+000	7.17207E-001	0.00000E+000	1.10900E+000	-1.19555E-004	12	...........	-327.56
	10585	10586	1.11351E+000	7.01958E-001	0.00000E+000	1.11500E+000	-1.19138E-004	12	...........	-327.56
	10591	10592	1.11946E+000	6.87547E-001	0.00000E+000	1.12100E+000	-1.20155E-004	12	...........	-327.56
	10597	10598	1.12547E+000	6.77799E-001	0.00000E+000	1.12700E+000	-1.18138E-004	12	...........	-327.56
	10603	10604	1.13149E+000	6.67006E-001	0.00000E+000	1.13300E+000	-1.21655E-004	12	...........	-327.56
	10609	10610	1.13749E+000	6.56433E-001	0.00000E+000	1.13900E+000	-1.19688E-004	12	...........	-327.56
	10615	10616	1.14342E+000	6.48827E-001	0.00000E+000	1.14500E+000	-1.18705E-004	12	...........	-327.56
	10621	10622	1.14944E+000	6.39741E-001	0.00000E+000	1.15100E+000	-1.18138E-004	12	...........	-327.56
	10627	10628	1.15548E+000	6.32361E-001	0.00000E+000	1.15700E+000	-1.19121E-004	12	...........	-327.56
	10633	10634	1.16150E+000	6.27250E-001	0.00000E+000	1.16300E+000	-1.18905E-004	12	...........	-327.56
	10639	10640	1.16741E+000	6.20149E-001	0.00000E+000	1.16900E+000	-1.21038E-004	12	...........	-327.56
	10645	10646	1.17344E+000	6.14659E-001	0.00000E+000	1.17500E+000	-1.17605E-004	12	...........	-327.56
	10651	10652	1.17948E+000	6.10717E-001	0.00000E+000	1.18100E+000	-1.20821E-004	12	...........	-327.56
	10657	10658	1.18550E+000	6.09358E-001	0.00000E+000	1.18700E+000	-1.20071E-004	12	...........	-327.56
	10663	10664	1.19139E+000	6.09418E-001	0.00000E+000	1.19300E+000	-1.24938E-004	12	...........	-327.56
	10669	10670	1.19741E+000	6.11271E-001	0.00000E+000	1.19900E+000	-1.20588E-004	12	...........	-327.56
	10675	10676	1.20343E+000	6.16952E-001	0.00000E+000	1.20500E+000	-1.17621E-004	12	...........	-327.56
	10681	10682	1.20948E+000	6.20904E-001	0.00000E+000	1.21100E+000	-1.20055E-004	12	...........	-327.56
	10687	10688	1.21542E+000	6.29357E-001	0.00000E+000	1.21700E+000	-1.16588E-004	12	...........	-327.56
	10693	10694	1.22140E+000	6.38272E-001	0.00000E+000	1.22300E+000	-1.18505E-004	12	...........	-327.56
	10699	10700	1.22741E+000	6.45887E-001	0.00000E+000	1.22900E+000	-1.20038E-004	12	...........	-327.56
	10705	10706	1.23345E+000	6.54459E-001	0.00000E+000	1.23500E+000	-1.22905E-004	12	...........	-327.56
	10711	10712	1.23940E+000	6.89509E-001	0.00000E+000	1.24100E+000	-1.21021E-004	12	...........	-327.56
	10717	10718	1.24532E+000	7.14075E-001	0.00000E+000	1.24700E+000	-1.20521E-004	12	...........	-327.56
	10723	10724	1.25135E+000	7.34038E-001	0.00000E+000	1.25300E+000	-1.19505E-004	12	...........	-327.56
	10729	10730	1.25734E+000	7.43448E-001	0.00000E+000	1.25900E+000	-1.19971E-004	12	...........	-327.56
	10735	10736	1.26338E+000	7.39519E-001	0.00000E+000	1.26500E+000	-1.22205E-004	12	...........	-327.56
	10741	10742	1.26925E+000	7.44331E-001	0.00000E+000	1.27100E+000	-1.21105E-004	12	...........	-327.56
	10747	10748	1.27529E+000	7.49249E-001	0.00000E+000	1.27700E+000	-1.19471E-004	12	...........	-327.56
	10753	10754	1.28132E+000	7.53904E-001	0.00000E+000	1.28300E+000	-1.19255E-004	12	...........	-327.56
	10759	10760	1.28733E+000	7.61860E-001	0.00000E+000	1.28900E+000	-1.25388E-004	12	...........	-327.56
	10765	10766	1.29321E+000	7.67440E-001	0.00000E+000	1.29500E+000	-1.20888E-004	12	...........	-327.56
	10771	10772	1.29926E+000	7.70398E-001	0.00000E+000	1.30100E+000	-1.22888E-004	12	...........	-327.56
	10777	10778	1.30525E+000	7.78947E-001	0.00000E+000	1.30700E+000	-1.18855E-004	12	...........	-327.56
	10783	10784	1.31128E+000	7.89837E-001	0.00000E+000	1.31300E+000	-1.24405E-004	12	...........	-327.56
	10789	10790	1.31727E+000	8.00363E-001	0.00000E+000	1.31900E+000	-1.18688E-004	12	...........	-327.56
	10795	10796	1.32319E+000	8.12149E-001	0.00000E+000	1.32500E+000	-1.21638E-004	12	...........	-327.56
	10801	10802	1.32920E+000	8.18359E-001	0.00000E+000	1.33100E+000	-1.18088E-004	12	...........	-327.56
	10807	10808	1.33519E+000	8.39493E-001	0.00000E+000	1.33700E+000	-1.19555E-004	12	...........	-327.56
	10813	10814	1.34118E+000	8.60092E-001	0.00000E+000	1.34300E+000	-1.19621E-004	12	...........	-327.56
	10819	10820	1.34714E+000	8.78145E-001	0.00000E+000	1.34900E+000	-1.19671E-004	12	...........	-327.56
	10825	10826	1.35310E+000	8.91677E-001	0.00000E+000	1.35500E+000	-1.18521E-004	12	...........	-327.56
	10831	10832	1.35914E+000	8.99915E-001	0.00000E+000	1.36100E+000	-1.15921E-004	12	...........	-327.56
	10837	10838	1.36516E+000	9.14400E-001	0.00000E+000	1.36700E+000	-1.20805E-004	12	...........	-327.56
	10843	10844	1.37113E+000	9.23621E-001	0.00000E+000	1.37300E+000	-1.21455E-004	12	...........	-327.56
	10849	10850	1.37707E+000	9.50015E-001	0.00000E+000	1.37900E+000	-1.19105E-004	12	...........	-327.56
	10855	10856	1.38307E+000	9.49385E-001	0.00000E+000	1.38500E+000	-1.18921E-004	12	...........	-327.56
	10861	10862	1.38910E+000	9.69173E-001	0.00000E+000	1.39100E+000	-1.16505E-004	12	...........	-327.56
	10867	10868	1.39507E+000	9.82661E-001	0.00000E+000	1.39700E+000	-1.18938E-004	12	...........	-327.56
	10873	10874	1.40102E+000	9.91948E-001	0.00000E+000	1.40300E+000	-1.21338E-004	12	...........	-327.56
	10879	10880	1.40701E+000	1.01333E+000	0.00000E+000	1.40900E+000	-1.19155E-004	12	...........	-327.56
	10885	10886	1.41305E+000	1.01665E+000	0.00000E+000	1.41500E+000	-1.17788E-004	12	...........	-327.56
	10891	10892	1.41904E+000	1.05122E+000	0.00000E+000	1.42100E+000	-1.18321E-004	12	...........	-327.56
	10897	10898	1.42496E+000	1.05928E+000	0.00000E+000	1.42700E+000	-1.21555E-004	12	...........	-327.56
	10903	10904	1.43097E+000	1.06210E+000	0.00000E+000	1.43300E+000	-1.19088E-004	12	...........	-327.56
	10909	10910	1.43696E+000	1.08880E+000	0.00000E+000	1.43900E+000	-1.22688E-004	12	...........	-327.56
	10915	10916	1.44298E+000	1.09358E+000	0.00000E+000	1.44500E+000	-1.19555E-004	12	...........	-327.56
	10921	10922	1.44884E+000	1.15927E+000	0.00000E+000	1.45100E+000	-1.22771E-004	12	...........	-327.56
	10927	10928	1.45488E+000	1.14221E+000	0.00000E+000	1.45700E+000	-1.19321E-004	12	...........	-327.56
	10933	10934	1.46093E+000	1.14414E+000	0.00000E+000	1.46300E+000	-1.21488E-004	12	...........	-327.56
	10939	10940	1.46694E+000	1.16376E+000	0.00000E+000	1.46900E+000	-1.20555E-004	12	...........	-327.56
	10945	10946	1.47279E+000	1.17131E+000	0.00000E+000	1.47500E+000	-1.22321E-004	12	...........	-327.56
	10951	10952	1.47883E+000	1.19286E+000	0.00000E+000	1.48100E+000	-1.20405E-004	12	...........	-327.56
	10957	10958	1.48483E+000	1.20249E+000	0.00000E+000	1.48700E+000	-1.21771E-004	12	...........	-327.56
	10963	10964	1.49085E+000	1.24581E+000	0.00000E+000	1.49300E+000	-1.18421E-004	12	...........	-327.56
	10969	10970	1.49683E+000	1.26560E+000	0.00000E+000	1.49900E+000	-1.23088E-004	12	...........	-327.56
	10975	10976	1.50278E+000	1.26442E+000	0.00000E+000	1.50500E+000	-1.20138E-004	12	...........	-327.56
	10981	10982	1.50878E+000	1.26262E+000	0.00000E+000	1.51100E+000	-1.22055E-004	12	...........	-327.56
	10987	10988	1.51481E+000	1.29583E+000	0.00000E+000	1.51700E+000	-1.21771E-004	12	...........	-327.56
	10993	10994	1.52081E+000	1.34719E+000	0.00000E+000	1.52300E+000	-1.18438E-004	12	...........	-327.56
	10999	11000	1.52672E+000	1.33889E+000	0.00000E+000	1.52900E+000	-1.22338E-004	12	...........	-327.56
	11005	11006	1.53274E+000	1.37979E+000	0.00000E+000	1.53500E+000	-1.18938E-004	12	...........	-327.56
	11011	11012	1.53873E+000	1.36341E+000	0.00000E+000	1.54100E+000	-1.19221E-004	12	...........	-327.56
	11017	11018	1.54471E+000	1.40643E+000	0.00000E+000	1.54700E+000	-1.16321E-004	12	...........	-327.56
	11023	11024	1.55062E+000	1.39811E+000	0.00000E+000	1.55300E+000	-1.20905E-004	12	...........	-327.56
	11029	11030	1.55670E+000	1.39774E+000	0.00000E+000	1.55900E+000	-1.23205E-004	12	...........	-327.56
	11035	11036	1.56269E+000	1.41777E+000	0.00000E+000	1.56500E+000	-1.19971E-004	12	...........	-327.56
	11041	11042	1.56869E+000	1.42959E+000	0.00000E+000	1.57100E+000	-1.13188E-004	12	...........	-327.56
	11047	11048	1.57460E+000	1.49731E+000	0.00000E+000	1.57700E+000	-1.19871E-004	12	...........	-327.56
	11053	11054	1.58064E+000	1.55460E+000	0.00000E+000	1.58300E+000	-1.19338E-004	12	...........	-327.56
	11059	11060	1.58660E+000	1.57817E+000	0.00000E+000	1.58900E+000	-1.19955E-004	12	...........	-327.56
	11065	11066	1.59261E+000	1.63603E+000	0.00000E+000	1.59500E+000	-1.19188E-004	12	...........	-327.56
	11071	11072	1.59864E+000	1.58001E+000	0.00000E+000	1.60100E+000	-1.20038E-004	12	...........	-327.56
	11077	11078	1.60459E+000	1.62671E+000	0.00000E+000	1.60700E+000	-1.21088E-004	12	...........	-327.56
	11083	11084	1.61055E+000	1.64482E+000	0.00000E+000	1.61300E+000	-1.20605E-004	12	...........	-327.56
	11089	11090	1.61658E+000	1.67422E+000	0.00000E+000	1.61900E+000	-1.16738E-004	12	...........	-327.56
	11095	11096	1.62259E+000	1.65264E+000	0.00000E+000	1.62500E+000	-1.19205E-004	12	...........	-327.56
	11101	11102	1.62852E+000	1.70399E+000	0.00000E+000	1.63100E+000	-1.20521E-004	12	...........	-327.56
	11107	11108	1.63451E+000	1.71086E+000	0.00000E+000	1.63700E+000	-1.20971E-004	12	...........	-327.56
	11113	11114	1.64049E+000	1.77499E+000	0.00000E+000	1.64300E+000	-1.18488E-004	12	...........	-327.56
	11119	11120	1.64652E+000	1.76531E+000	0.00000E+000	1.64900E+000	-1.18688E-004	12	...........	-327.56
	11125	11126	1.65239E+000	1.84844E+000	0.00000E+000	1.65500E+000	-1.21421E-004	12	...........	-327.56
	11131	11132	1.65843E+000	1.80870E+000	0.00000E+000	1.66100E+000	-1.19255E-004	12	...........	-327.56
	11137	11138	1.66443E+000	1.94748E+000	0.00000E+000	1.66700E+000	-1.16188E-004	12	...........	-327.56
	11143	11144	1.67048E+000	1.90570E+000	0.00000E+000	1.67300E+000	-1.19505E-004	12	...........	-327.56
	11149	11150	1.67648E+000	1.85892E+000	0.00000E+000	1.67900E+000	-1.18971E-004	12	...........	-327.56
	11155	11156	1.68240E+000	1.90396E+000	0.00000E+000	1.68500E+000	-1.17721E-004	12	...........	-327.56
	11161	11162	1.68840E+000	1.99738E+000	0.00000E+000	1.69100E+000	-1.17438E-004	12	...........	-327.56
	11167	11168	1.69444E+000	1.95303E+000	0.00000E+000	1.69700E+000	-1.19488E-004	12	...........	-327.56
	11170	11171	1.69747E+000	1.95711E+000	0.00000E+000	1.70000E+000	-1.19055E-004	12	...........	-327.56