File: testing/data/240902_13_MCL13_cswWE_CV1_750C_CO2.DTA
EXPLAIN
TAG	CV
TITLE	LABEL	Cyclic Voltammetry	Test Identifier
DATE	LABEL	9/3/2024	Date
TIME	LABEL	8:08:38	Time
NOTES	NOTES	5	Notes...
	cswWE - carbon steel wire
cspWE - carbon steel plate 2x2 tapered

Carbon steel plate counter electrode
Carbon steel wire reference electrode
PSTAT	PSTAT	REF3000-48128	Potentiostat
VINIT	POTEN	0.00000E+000	T	Initial E (V)
VLIMIT1	POTEN	1.70000E+000	F	Scan Limit 1 (V)
VLIMIT2	POTEN	-1.00000E+000	F	Scan Limit 2 (V)
VFINAL	POTEN	1.70000E+000	F	Final E (V)
SCANRATE	QUANT	9.99998E-001	Scan Rate (mV/s)
STEPSIZE	QUANT	1.00000E+000	Step Size (mV)
CYCLES	IQUANT	2	Cycles (#)
IMODE	SELECTOR	0	I/E Range Mode
IRANGE	QUANT	3.00000E-001	Max Current (mA)
AREA	QUANT	1.00000E+000	Sample Area (cm^2)
EQDELAY	QUANT	0.00000E+000	Equil. Time (s)
IRCOMP	SELECTOR	0	IRComp
PFCOR	QUANT	5.00000E+001	PF Corr. (ohm)
SAMPLINGMODE	SELECTOR	1	Sampling Mode
EOC	QUANT	0.5911781	Open Circuit (V)
ELECTRODETYPE	SELECTOR	0	Electrode Type
STRIPPING	TOGGLE	F	Used for Stripping
SEQUENCER	TOGGLE	TRUE	Run as Sequence
PSTATMODEL	IQUANT	5	Pstat Model
PSTATSECTION	LABEL	REF3000-48128	Pstat Section
PSTATSERIALNO	LABEL	48128	Pstat Serial Number
CTRLMODE	IQUANT	1	Control Mode
ELECTROMETER	IQUANT	0	RE=0 or CS=1
IESTAB	IQUANT	2	I/E Stability
CASPEED	IQUANT	4	Control Amp Speed
CONVENTION	IQUANT	1	Current Convention
ICHRANGE	IQUANT	2	Ich Range
ICHRANGEMODE	TOGGLE	F	Ich Auto Range
ICHOFFSETENABLE	TOGGLE	F	Ich Offset Enable
ICHOFFSET	QUANT	0	Ich Offset (V)
ICHFILTER	IQUANT	3	Ich Filter
VCHRANGE	IQUANT	2	Vch Range
VCHRANGEMODE	TOGGLE	F	Vch Auto Range
VCHOFFSETENABLE	TOGGLE	F	Vch Offset Enable
VCHOFFSET	QUANT	0	Vch Offset (V)
VCHFILTER	IQUANT	3	Vch Filter
ACHRANGE	IQUANT	2	Ach Range
ACHOFFSETENABLE	TOGGLE	F	Ach Offset Enable
ACHOFFSET	QUANT	0	Ach Offset (V)
ACHFILTER	IQUANT	1	Ach Filter
IERANGELOWERLIMIT	IQUANT	2	I/E Range Lower Limit
IERANGEMODE	TOGGLE	T	I/E AutoRange
IERANGE	IQUANT	9	I/E Range
POSFEEDENABLE	TOGGLE	F	Positive Feedback IR Comp
POSFEEDRESISTANCE	QUANT	0	Positive Feedback Resistance (ohm)
ACHSELECT	IQUANT	4	Ach Select
SENSECABLEID	IQUANT	14	Sense Cable ID
PWRCABLEID	IQUANT	7	Power Cable ID
DCCALDATE	LABEL	8/16/2024	DC Calibration Date
ACCALDATE	LABEL	8/16/2024	AC Calibration Date
THERMOSELECT	IQUANT	1	Thermo Select
FRAMEWORKVERSION	LABEL	7.10.3	Framework Version
INSTRUMENTVERSION	LABEL	4.91	Instrument Version
COMMVERSION	LABEL	5.10	Communications Version
CPUPLDVERSION	LABEL	6.00	CPU PLD Version
CTRLPLDVERSION	LABEL	3.21	CTRL PLD Version
PSTATPLDVERSION	LABEL	0.00	PSTAT PLD Version
COMPLIANCEVOLTAGE	IQUANT	0	Compliance Voltage
CURVE1	TABLE
	Pt	T	Vf	Im	Vu	Sig	Ach	IERange	Over	Temp
	#	s	V vs. Ref.	A	V	V	V	#	bits	deg C
	0	1	5.90532E-001	4.90732E-004	0.00000E+000	5.91200E-001	-9.60881E-005	9	...........	-327.56
	8	9	5.98353E-001	1.84288E-003	0.00000E+000	5.99200E-001	-9.45214E-005	9	...........	-327.56
	16	17	6.06283E-001	2.56574E-003	0.00000E+000	6.07200E-001	-9.08214E-005	9	...........	-327.56
	24	25	6.14506E-001	3.11829E-003	0.00000E+000	6.15200E-001	-1.06738E-004	10	...........	-327.56
	32	33	6.22529E-001	3.53257E-003	0.00000E+000	6.23200E-001	-1.07388E-004	10	...........	-327.56
	40	41	6.30443E-001	3.87830E-003	0.00000E+000	6.31200E-001	-1.05205E-004	10	...........	-327.56
	48	49	6.38475E-001	4.07261E-003	0.00000E+000	6.39200E-001	-1.06638E-004	10	...........	-327.56
	56	57	6.46514E-001	4.24107E-003	0.00000E+000	6.47200E-001	-1.03771E-004	10	...........	-327.56
	64	65	6.54381E-001	4.40793E-003	0.00000E+000	6.55200E-001	-1.08255E-004	10	...........	-327.56
	72	73	6.62441E-001	4.59522E-003	0.00000E+000	6.63200E-001	-1.04021E-004	10	...........	-327.56
	80	81	6.70468E-001	4.76814E-003	0.00000E+000	6.71200E-001	-1.05055E-004	10	...........	-327.56
	88	89	6.78440E-001	4.81226E-003	0.00000E+000	6.79200E-001	-1.04671E-004	10	...........	-327.56
	96	97	6.86411E-001	4.82906E-003	0.00000E+000	6.87200E-001	-1.07321E-004	10	...........	-327.56
	104	105	6.94445E-001	4.83596E-003	0.00000E+000	6.95200E-001	-1.04838E-004	10	...........	-327.56
	112	113	7.02459E-001	4.89684E-003	0.00000E+000	7.03200E-001	-1.09305E-004	10	...........	-327.56
	120	121	7.10382E-001	4.90391E-003	0.00000E+000	7.11200E-001	-1.07988E-004	10	...........	-327.56
	128	129	7.18380E-001	4.97659E-003	0.00000E+000	7.19200E-001	-1.08705E-004	10	...........	-327.56
	136	137	7.26390E-001	4.99285E-003	0.00000E+000	7.27200E-001	-1.06821E-004	10	...........	-327.56
	144	145	7.34348E-001	4.99463E-003	0.00000E+000	7.35200E-001	-1.06105E-004	10	...........	-327.56
	152	153	7.42348E-001	5.04136E-003	0.00000E+000	7.43200E-001	-1.06821E-004	10	...........	-327.56
	160	161	7.50380E-001	5.06121E-003	0.00000E+000	7.51200E-001	-1.07405E-004	10	...........	-327.56
	168	169	7.58337E-001	5.02004E-003	0.00000E+000	7.59200E-001	-1.04688E-004	10	...........	-327.56
	176	177	7.66346E-001	5.00696E-003	0.00000E+000	7.67200E-001	-1.07971E-004	10	...........	-327.56
	184	185	7.74357E-001	5.01224E-003	0.00000E+000	7.75200E-001	-1.05638E-004	10	...........	-327.56
	192	193	7.82323E-001	5.05167E-003	0.00000E+000	7.83200E-001	-1.07205E-004	10	...........	-327.56
	200	201	7.90332E-001	5.05187E-003	0.00000E+000	7.91200E-001	-1.08321E-004	10	...........	-327.56
	208	209	7.98342E-001	5.03385E-003	0.00000E+000	7.99200E-001	-1.06088E-004	10	...........	-327.56
	216	217	8.06337E-001	4.98969E-003	0.00000E+000	8.07200E-001	-1.03505E-004	10	...........	-327.56
	224	225	8.14333E-001	4.92453E-003	0.00000E+000	8.15200E-001	-1.04255E-004	10	...........	-327.56
	232	233	8.22311E-001	4.90891E-003	0.00000E+000	8.23200E-001	-1.03855E-004	10	...........	-327.56
	240	241	8.30302E-001	4.92801E-003	0.00000E+000	8.31200E-001	-1.04621E-004	10	...........	-327.56
	248	249	8.38279E-001	4.93624E-003	0.00000E+000	8.39200E-001	-1.05138E-004	10	...........	-327.56
	256	257	8.46303E-001	4.94805E-003	0.00000E+000	8.47200E-001	-1.05221E-004	10	...........	-327.56
	264	265	8.54292E-001	4.96107E-003	0.00000E+000	8.55200E-001	-1.05621E-004	10	...........	-327.56
	272	273	8.62279E-001	4.98232E-003	0.00000E+000	8.63200E-001	-1.03588E-004	10	...........	-327.56
	280	281	8.70262E-001	5.01884E-003	0.00000E+000	8.71200E-001	-1.05755E-004	10	...........	-327.56
	288	289	8.78277E-001	5.06892E-003	0.00000E+000	8.79200E-001	-1.05855E-004	10	...........	-327.56
	296	297	8.86255E-001	5.11771E-003	0.00000E+000	8.87200E-001	-1.05505E-004	10	...........	-327.56
	304	305	8.94246E-001	5.15630E-003	0.00000E+000	8.95200E-001	-1.07638E-004	10	...........	-327.56
	312	313	9.02261E-001	5.20962E-003	0.00000E+000	9.03200E-001	-1.04688E-004	10	...........	-327.56
	320	321	9.10227E-001	5.28694E-003	0.00000E+000	9.11200E-001	-1.06605E-004	10	...........	-327.56
	328	329	9.18226E-001	5.35492E-003	0.00000E+000	9.19200E-001	-1.03021E-004	10	...........	-327.56
	336	337	9.26208E-001	5.43849E-003	0.00000E+000	9.27200E-001	-1.03555E-004	10	...........	-327.56
	344	345	9.34192E-001	5.61955E-003	0.00000E+000	9.35200E-001	-1.03071E-004	10	...........	-327.56
	352	353	9.42138E-001	5.85314E-003	0.00000E+000	9.43200E-001	-1.05988E-004	10	...........	-327.56
	360	361	9.50163E-001	6.16726E-003	0.00000E+000	9.51200E-001	-1.04621E-004	10	...........	-327.56
	368	369	9.58163E-001	6.65135E-003	0.00000E+000	9.59200E-001	-1.04121E-004	10	...........	-327.56
	376	377	9.66094E-001	7.30627E-003	0.00000E+000	9.67200E-001	-1.06838E-004	10	...........	-327.56
	384	385	9.74100E-001	8.00387E-003	0.00000E+000	9.75200E-001	-1.04021E-004	10	...........	-327.56
	392	393	9.82104E-001	8.84163E-003	0.00000E+000	9.83200E-001	-9.95548E-005	10	...........	-327.56
	400	401	9.90012E-001	9.91034E-003	0.00000E+000	9.91200E-001	-1.06388E-004	10	...........	-327.56
	408	409	9.98004E-001	1.12467E-002	0.00000E+000	9.99200E-001	-1.05288E-004	10	...........	-327.56
	416	417	1.00604E+000	1.28314E-002	0.00000E+000	1.00720E+000	-1.08671E-004	10	...........	-327.56
	424	425	1.01394E+000	1.46434E-002	0.00000E+000	1.01520E+000	-1.02388E-004	10	...........	-327.56
	432	433	1.02193E+000	1.67992E-002	0.00000E+000	1.02320E+000	-1.03605E-004	10	...........	-327.56
	440	441	1.02992E+000	1.91590E-002	0.00000E+000	1.03120E+000	-1.02155E-004	10	...........	-327.56
	448	449	1.03780E+000	2.17084E-002	0.00000E+000	1.03920E+000	-1.06138E-004	10	...........	-327.56
	456	457	1.04581E+000	2.44859E-002	0.00000E+000	1.04720E+000	-1.02238E-004	10	...........	-327.56
	464	465	1.05411E+000	2.75239E-002	0.00000E+000	1.05520E+000	-1.03921E-004	11	...........	-327.56
	472	473	1.06211E+000	3.05963E-002	0.00000E+000	1.06320E+000	-1.05138E-004	11	...........	-327.56
	480	481	1.07004E+000	3.39981E-002	0.00000E+000	1.07120E+000	-1.05321E-004	11	...........	-327.56
	488	489	1.07806E+000	3.76900E-002	0.00000E+000	1.07920E+000	-1.03555E-004	11	...........	-327.56
	496	497	1.08607E+000	4.17330E-002	0.00000E+000	1.08720E+000	-1.06838E-004	11	...........	-327.56
	504	505	1.09398E+000	4.61377E-002	0.00000E+000	1.09520E+000	-1.04938E-004	11	...........	-327.56
	512	513	1.10202E+000	5.08535E-002	0.00000E+000	1.10320E+000	-1.07121E-004	11	...........	-327.56
	520	521	1.11002E+000	5.59695E-002	0.00000E+000	1.11120E+000	-1.07238E-004	11	...........	-327.56
	528	529	1.11795E+000	6.09859E-002	0.00000E+000	1.11920E+000	-1.02671E-004	11	...........	-327.56
	536	537	1.12595E+000	6.58131E-002	0.00000E+000	1.12720E+000	-9.99714E-005	11	...........	-327.56
	544	545	1.13394E+000	7.16577E-002	0.00000E+000	1.13520E+000	-1.05405E-004	11	...........	-327.56
	552	553	1.14185E+000	7.74692E-002	0.00000E+000	1.14320E+000	-1.08505E-004	11	...........	-327.56
	560	561	1.14988E+000	8.38196E-002	0.00000E+000	1.15120E+000	-1.04121E-004	11	...........	-327.56
	568	569	1.15790E+000	8.99807E-002	0.00000E+000	1.15920E+000	-1.02105E-004	11	...........	-327.56
	576	577	1.16580E+000	9.65757E-002	0.00000E+000	1.16720E+000	-1.07205E-004	11	...........	-327.56
	584	585	1.17382E+000	1.04023E-001	0.00000E+000	1.17520E+000	-1.03888E-004	11	...........	-327.56
	592	593	1.18184E+000	1.12001E-001	0.00000E+000	1.18320E+000	-1.03771E-004	11	...........	-327.56
	600	601	1.18981E+000	1.21427E-001	0.00000E+000	1.19120E+000	-1.03471E-004	11	...........	-327.56
	608	609	1.19776E+000	1.31440E-001	0.00000E+000	1.19920E+000	-1.08605E-004	11	...........	-327.56
	616	617	1.20578E+000	1.42455E-001	0.00000E+000	1.20720E+000	-1.07221E-004	11	...........	-327.56
	624	625	1.21375E+000	1.53914E-001	0.00000E+000	1.21520E+000	-1.02488E-004	11	...........	-327.56
	632	633	1.22167E+000	1.66374E-001	0.00000E+000	1.22320E+000	-1.04121E-004	11	...........	-327.56
	640	641	1.22967E+000	1.79189E-001	0.00000E+000	1.23120E+000	-1.02438E-004	11	...........	-327.56
	648	649	1.23767E+000	1.92491E-001	0.00000E+000	1.23920E+000	-1.04838E-004	11	...........	-327.56
	656	657	1.24558E+000	2.05897E-001	0.00000E+000	1.24720E+000	-1.02871E-004	11	...........	-327.56
	664	665	1.25357E+000	2.20563E-001	0.00000E+000	1.25520E+000	-1.01488E-004	11	...........	-327.56
	672	673	1.26159E+000	2.35722E-001	0.00000E+000	1.26320E+000	-9.91714E-005	11	...........	-327.56
	680	681	1.26949E+000	2.50895E-001	0.00000E+000	1.27120E+000	-1.00205E-004	11	...........	-327.56
	688	689	1.27749E+000	2.65827E-001	0.00000E+000	1.27920E+000	-9.93548E-005	11	...........	-327.56
	696	697	1.28582E+000	2.80312E-001	0.00000E+000	1.28720E+000	-1.04221E-004	12	...........	-327.56
	704	705	1.29368E+000	2.95250E-001	0.00000E+000	1.29520E+000	-1.06755E-004	12	...........	-327.56
	712	713	1.30172E+000	3.11617E-001	0.00000E+000	1.30320E+000	-1.10021E-004	12	...........	-327.56
	720	721	1.30976E+000	3.27757E-001	0.00000E+000	1.31120E+000	-1.07905E-004	12	...........	-327.56
	728	729	1.31774E+000	3.43362E-001	0.00000E+000	1.31920E+000	-1.04571E-004	12	...........	-327.56
	736	737	1.32568E+000	3.57744E-001	0.00000E+000	1.32720E+000	-1.06271E-004	12	...........	-327.56
	744	745	1.33364E+000	3.74986E-001	0.00000E+000	1.33520E+000	-1.12121E-004	12	...........	-327.56
	752	753	1.34165E+000	3.91814E-001	0.00000E+000	1.34320E+000	-1.06455E-004	12	...........	-327.56
	760	761	1.34957E+000	4.06655E-001	0.00000E+000	1.35120E+000	-1.06538E-004	12	...........	-327.56
	768	769	1.35759E+000	4.22802E-001	0.00000E+000	1.35920E+000	-9.99714E-005	12	...........	-327.56
	776	777	1.36561E+000	4.39122E-001	0.00000E+000	1.36720E+000	-1.05138E-004	12	...........	-327.56
	784	785	1.37352E+000	4.57246E-001	0.00000E+000	1.37520E+000	-1.03571E-004	12	...........	-327.56
	792	793	1.38153E+000	4.74315E-001	0.00000E+000	1.38320E+000	-1.04105E-004	12	...........	-327.56
	800	801	1.38956E+000	4.90870E-001	0.00000E+000	1.39120E+000	-1.02971E-004	12	...........	-327.56
	808	809	1.39746E+000	5.07742E-001	0.00000E+000	1.39920E+000	-1.03721E-004	12	...........	-327.56
	816	817	1.40547E+000	5.26028E-001	0.00000E+000	1.40720E+000	-1.03305E-004	12	...........	-327.56
	824	825	1.41351E+000	5.42093E-001	0.00000E+000	1.41520E+000	-1.02438E-004	12	...........	-327.56
	832	833	1.42141E+000	5.60182E-001	0.00000E+000	1.42320E+000	-1.06138E-004	12	...........	-327.56
	840	841	1.42943E+000	5.75188E-001	0.00000E+000	1.43120E+000	-1.05438E-004	12	...........	-327.56
	848	849	1.43745E+000	5.93355E-001	0.00000E+000	1.43920E+000	-1.01638E-004	12	...........	-327.56
	856	857	1.44544E+000	6.04854E-001	0.00000E+000	1.44720E+000	-1.02688E-004	12	...........	-327.56
	864	865	1.45336E+000	6.19715E-001	0.00000E+000	1.45520E+000	-1.04021E-004	12	...........	-327.56
	872	873	1.46140E+000	6.34474E-001	0.00000E+000	1.46320E+000	-1.05388E-004	12	...........	-327.56
	880	881	1.46940E+000	6.51768E-001	0.00000E+000	1.47120E+000	-1.01038E-004	12	...........	-327.56
	888	889	1.47732E+000	6.67895E-001	0.00000E+000	1.47920E+000	-1.04705E-004	12	...........	-327.56
	896	897	1.48532E+000	6.83350E-001	0.00000E+000	1.48720E+000	-1.02205E-004	12	...........	-327.56
	904	905	1.49335E+000	6.98215E-001	0.00000E+000	1.49520E+000	-1.02221E-004	12	...........	-327.56
	912	913	1.50125E+000	7.13966E-001	0.00000E+000	1.50320E+000	-1.04305E-004	12	...........	-327.56
	920	921	1.50925E+000	7.31811E-001	0.00000E+000	1.51120E+000	-1.04805E-004	12	...........	-327.56
	928	929	1.51730E+000	7.48729E-001	0.00000E+000	1.51920E+000	-1.00021E-004	12	...........	-327.56
	936	937	1.52520E+000	7.62355E-001	0.00000E+000	1.52720E+000	-1.05488E-004	12	...........	-327.56
	944	945	1.53323E+000	7.76774E-001	0.00000E+000	1.53520E+000	-1.03638E-004	12	...........	-327.56
	952	953	1.54120E+000	7.96636E-001	0.00000E+000	1.54320E+000	-1.04188E-004	12	...........	-327.56
	960	961	1.54910E+000	8.07627E-001	0.00000E+000	1.55120E+000	-1.02838E-004	12	...........	-327.56
	968	969	1.55713E+000	8.25770E-001	0.00000E+000	1.55920E+000	-1.03221E-004	12	...........	-327.56
	976	977	1.56516E+000	8.41464E-001	0.00000E+000	1.56720E+000	-1.00355E-004	12	...........	-327.56
	984	985	1.57316E+000	8.58034E-001	0.00000E+000	1.57520E+000	-1.04538E-004	12	...........	-327.56
	992	993	1.58110E+000	8.71462E-001	0.00000E+000	1.58320E+000	-1.01455E-004	12	...........	-327.56
	1000	1001	1.58910E+000	8.83721E-001	0.00000E+000	1.59120E+000	-1.01355E-004	12	...........	-327.56
	1008	1009	1.59711E+000	9.05708E-001	0.00000E+000	1.59920E+000	-1.03621E-004	12	...........	-327.56
	1016	1017	1.60503E+000	9.23071E-001	0.00000E+000	1.60720E+000	-1.03305E-004	12	...........	-327.56
	1024	1025	1.61304E+000	9.39526E-001	0.00000E+000	1.61520E+000	-1.04355E-004	12	...........	-327.56
	1032	1033	1.62107E+000	9.56186E-001	0.00000E+000	1.62320E+000	-1.05721E-004	12	...........	-327.56
	1040	1041	1.62898E+000	9.69745E-001	0.00000E+000	1.63120E+000	-1.04155E-004	12	...........	-327.56
	1048	1049	1.63700E+000	9.86235E-001	0.00000E+000	1.63920E+000	-1.03655E-004	12	...........	-327.56
	1056	1057	1.64500E+000	9.98194E-001	0.00000E+000	1.64720E+000	-1.04638E-004	12	...........	-327.56
	1064	1065	1.65289E+000	1.01654E+000	0.00000E+000	1.65520E+000	-1.04055E-004	12	...........	-327.56
	1072	1073	1.66093E+000	1.03197E+000	0.00000E+000	1.66320E+000	-1.03421E-004	12	...........	-327.56
	1080	1081	1.66898E+000	1.04790E+000	0.00000E+000	1.67120E+000	-1.04021E-004	12	...........	-327.56
	1088	1089	1.67691E+000	1.05992E+000	0.00000E+000	1.67920E+000	-1.04421E-004	12	...........	-327.56
	1096	1097	1.68489E+000	1.08010E+000	0.00000E+000	1.68720E+000	-1.05255E-004	12	...........	-327.56
	1104	1105	1.69292E+000	1.09522E+000	0.00000E+000	1.69520E+000	-1.03888E-004	12	...........	-327.56
	1112	1113	1.69492E+000	1.09326E+000	0.00000E+000	1.69720E+000	-1.02055E-004	12	...........	-327.56
	1120	1121	1.68689E+000	1.08639E+000	0.00000E+000	1.68920E+000	-1.01788E-004	12	...........	-327.56
	1128	1129	1.67885E+000	1.06412E+000	0.00000E+000	1.68120E+000	-1.03438E-004	12	...........	-327.56
	1136	1137	1.67096E+000	1.05129E+000	0.00000E+000	1.67320E+000	-1.01538E-004	12	...........	-327.56
	1144	1145	1.66292E+000	1.03484E+000	0.00000E+000	1.66520E+000	-1.02188E-004	12	...........	-327.56
	1152	1153	1.65491E+000	1.02228E+000	0.00000E+000	1.65720E+000	-1.05038E-004	12	...........	-327.56
	1160	1161	1.64698E+000	1.00098E+000	0.00000E+000	1.64920E+000	-1.02671E-004	12	...........	-327.56
	1168	1169	1.63899E+000	9.89298E-001	0.00000E+000	1.64120E+000	-1.05338E-004	12	...........	-327.56
	1176	1177	1.63099E+000	9.73426E-001	0.00000E+000	1.63320E+000	-1.00738E-004	12	...........	-327.56
	1184	1185	1.62305E+000	9.59227E-001	0.00000E+000	1.62520E+000	-1.00405E-004	12	...........	-327.56
	1192	1193	1.61503E+000	9.45573E-001	0.00000E+000	1.61720E+000	-1.04988E-004	12	...........	-327.56
	1200	1201	1.60702E+000	9.21402E-001	0.00000E+000	1.60920E+000	-9.92048E-005	12	...........	-327.56
	1208	1209	1.59908E+000	9.08868E-001	0.00000E+000	1.60120E+000	-1.02571E-004	12	...........	-327.56
	1216	1217	1.59110E+000	8.95284E-001	0.00000E+000	1.59320E+000	-1.01221E-004	12	...........	-327.56
	1224	1225	1.58308E+000	8.80039E-001	0.00000E+000	1.58520E+000	-9.95214E-005	12	...........	-327.56
	1232	1233	1.57504E+000	8.61804E-001	0.00000E+000	1.57720E+000	-9.89714E-005	12	...........	-327.56
	1240	1241	1.56715E+000	8.48050E-001	0.00000E+000	1.56920E+000	-9.97881E-005	12	...........	-327.56
	1248	1249	1.55911E+000	8.36051E-001	0.00000E+000	1.56120E+000	-1.00338E-004	12	...........	-327.56
	1256	1257	1.55110E+000	8.15028E-001	0.00000E+000	1.55320E+000	-1.03205E-004	12	...........	-327.56
	1264	1265	1.54318E+000	8.00448E-001	0.00000E+000	1.54520E+000	-1.00055E-004	12	...........	-327.56
	1272	1273	1.53519E+000	7.88795E-001	0.00000E+000	1.53720E+000	-1.02805E-004	12	...........	-327.56
	1280	1281	1.52720E+000	7.71511E-001	0.00000E+000	1.52920E+000	-9.92548E-005	12	...........	-327.56
	1288	1289	1.51930E+000	7.45733E-001	0.00000E+000	1.52120E+000	-1.04271E-004	12	...........	-327.56
	1296	1297	1.51127E+000	7.28654E-001	0.00000E+000	1.51320E+000	-9.94881E-005	12	...........	-327.56
	1304	1305	1.50325E+000	7.10273E-001	0.00000E+000	1.50520E+000	-1.03988E-004	12	...........	-327.56
	1312	1313	1.49533E+000	6.92895E-001	0.00000E+000	1.49720E+000	-1.05538E-004	12	...........	-327.56
	1320	1321	1.48734E+000	6.78604E-001	0.00000E+000	1.48920E+000	-1.01805E-004	12	...........	-327.56
	1328	1329	1.47932E+000	6.61976E-001	0.00000E+000	1.48120E+000	-1.04671E-004	12	...........	-327.56
	1336	1337	1.47138E+000	6.46087E-001	0.00000E+000	1.47320E+000	-1.05355E-004	12	...........	-327.56
	1344	1345	1.46341E+000	6.30600E-001	0.00000E+000	1.46520E+000	-1.03905E-004	12	...........	-327.56
	1352	1353	1.45537E+000	6.15617E-001	0.00000E+000	1.45720E+000	-1.05738E-004	12	...........	-327.56
	1360	1361	1.44734E+000	5.99066E-001	0.00000E+000	1.44920E+000	-1.04438E-004	12	...........	-327.56
	1368	1369	1.43945E+000	5.82460E-001	0.00000E+000	1.44120E+000	-1.00038E-004	12	...........	-327.56
	1376	1377	1.43142E+000	5.66346E-001	0.00000E+000	1.43320E+000	-1.02138E-004	12	...........	-327.56
	1384	1385	1.42341E+000	5.51512E-001	0.00000E+000	1.42520E+000	-1.04721E-004	12	...........	-327.56
	1392	1393	1.41549E+000	5.36010E-001	0.00000E+000	1.41720E+000	-1.06288E-004	12	...........	-327.56
	1400	1401	1.40747E+000	5.21276E-001	0.00000E+000	1.40920E+000	-1.00688E-004	12	...........	-327.56
	1408	1409	1.39945E+000	5.05017E-001	0.00000E+000	1.40120E+000	-1.03121E-004	12	...........	-327.56
	1416	1417	1.39152E+000	4.89125E-001	0.00000E+000	1.39320E+000	-1.01588E-004	12	...........	-327.56
	1424	1425	1.38354E+000	4.73501E-001	0.00000E+000	1.38520E+000	-1.03021E-004	12	...........	-327.56
	1432	1433	1.37551E+000	4.59044E-001	0.00000E+000	1.37720E+000	-1.00588E-004	12	...........	-327.56
	1440	1441	1.36760E+000	4.44850E-001	0.00000E+000	1.36920E+000	-1.04388E-004	12	...........	-327.56
	1448	1449	1.35959E+000	4.29512E-001	0.00000E+000	1.36120E+000	-1.02738E-004	12	...........	-327.56
	1456	1457	1.35156E+000	4.16226E-001	0.00000E+000	1.35320E+000	-1.04738E-004	12	...........	-327.56
	1464	1465	1.34361E+000	4.01998E-001	0.00000E+000	1.34520E+000	-9.98881E-005	12	...........	-327.56
	1472	1473	1.33564E+000	3.88103E-001	0.00000E+000	1.33720E+000	-1.02805E-004	12	...........	-327.56
	1480	1481	1.32765E+000	3.74652E-001	0.00000E+000	1.32920E+000	-1.04371E-004	12	...........	-327.56
	1488	1489	1.31962E+000	3.60790E-001	0.00000E+000	1.32120E+000	-1.03638E-004	12	...........	-327.56
	1496	1497	1.31173E+000	3.46636E-001	0.00000E+000	1.31320E+000	-1.01088E-004	12	...........	-327.56
	1504	1505	1.30370E+000	3.33178E-001	0.00000E+000	1.30520E+000	-1.02871E-004	12	...........	-327.56
	1512	1513	1.29571E+000	3.20337E-001	0.00000E+000	1.29720E+000	-1.05038E-004	12	...........	-327.56
	1520	1521	1.28779E+000	3.06931E-001	0.00000E+000	1.28920E+000	-1.01321E-004	12	...........	-327.56
	1528	1529	1.27975E+000	2.94069E-001	0.00000E+000	1.28120E+000	-1.01455E-004	12	...........	-327.56
	1536	1537	1.27179E+000	2.82541E-001	0.00000E+000	1.27320E+000	-1.05921E-004	12	...........	-327.56
	1544	1545	1.26384E+000	2.69778E-001	0.00000E+000	1.26520E+000	-1.02288E-004	12	...........	-327.56
	1552	1553	1.25584E+000	2.57750E-001	0.00000E+000	1.25720E+000	-1.03655E-004	12	...........	-327.56
	1560	1561	1.24783E+000	2.45908E-001	0.00000E+000	1.24920E+000	-1.02088E-004	12	...........	-327.56
	1568	1569	1.23960E+000	2.32063E-001	0.00000E+000	1.24120E+000	-1.00505E-004	11	...........	-327.56
	1576	1577	1.23160E+000	2.20858E-001	0.00000E+000	1.23320E+000	-9.71214E-005	11	...........	-327.56
	1584	1585	1.22358E+000	2.10106E-001	0.00000E+000	1.22520E+000	-1.03788E-004	11	...........	-327.56
	1592	1593	1.21565E+000	1.98844E-001	0.00000E+000	1.21720E+000	-1.01071E-004	11	...........	-327.56
	1600	1601	1.20767E+000	1.87448E-001	0.00000E+000	1.20920E+000	-1.01605E-004	11	...........	-327.56
	1608	1609	1.19965E+000	1.76976E-001	0.00000E+000	1.20120E+000	-1.02121E-004	11	...........	-327.56
	1616	1617	1.19163E+000	1.67069E-001	0.00000E+000	1.19320E+000	-1.04105E-004	11	...........	-327.56
	1624	1625	1.18376E+000	1.57486E-001	0.00000E+000	1.18520E+000	-1.00088E-004	11	...........	-327.56
	1632	1633	1.17575E+000	1.48609E-001	0.00000E+000	1.17720E+000	-1.04821E-004	11	...........	-327.56
	1640	1641	1.16778E+000	1.39302E-001	0.00000E+000	1.16920E+000	-1.00888E-004	11	...........	-327.56
	1648	1649	1.15984E+000	1.30004E-001	0.00000E+000	1.16120E+000	-1.00788E-004	11	...........	-327.56
	1656	1657	1.15183E+000	1.21017E-001	0.00000E+000	1.15320E+000	-1.04571E-004	11	...........	-327.56
	1664	1665	1.14387E+000	1.12307E-001	0.00000E+000	1.14520E+000	-1.03321E-004	11	...........	-327.56
	1672	1673	1.13590E+000	1.04060E-001	0.00000E+000	1.13720E+000	-1.03338E-004	11	...........	-327.56
	1680	1681	1.12791E+000	9.62209E-002	0.00000E+000	1.12920E+000	-1.05471E-004	11	...........	-327.56
	1688	1689	1.11993E+000	8.86506E-002	0.00000E+000	1.12120E+000	-9.97881E-005	11	...........	-327.56
	1696	1697	1.11197E+000	8.12433E-002	0.00000E+000	1.11320E+000	-1.03055E-004	11	...........	-327.56
	1704	1705	1.10398E+000	7.40934E-002	0.00000E+000	1.10520E+000	-1.03505E-004	11	...........	-327.56
	1712	1713	1.09596E+000	6.73019E-002	0.00000E+000	1.09720E+000	-1.06071E-004	11	...........	-327.56
	1720	1721	1.08801E+000	6.10829E-002	0.00000E+000	1.08920E+000	-1.03871E-004	11	...........	-327.56
	1728	1729	1.08003E+000	5.51844E-002	0.00000E+000	1.08120E+000	-1.04871E-004	11	...........	-327.56
	1736	1737	1.07201E+000	4.96873E-002	0.00000E+000	1.07320E+000	-1.04788E-004	11	...........	-327.56
	1744	1745	1.06396E+000	4.44539E-002	0.00000E+000	1.06520E+000	-1.04921E-004	11	...........	-327.56
	1752	1753	1.05608E+000	3.94100E-002	0.00000E+000	1.05720E+000	-1.05421E-004	11	...........	-327.56
	1760	1761	1.04805E+000	3.45175E-002	0.00000E+000	1.04920E+000	-1.03571E-004	11	...........	-327.56
	1768	1769	1.04004E+000	3.04045E-002	0.00000E+000	1.04120E+000	-1.04505E-004	11	...........	-327.56
	1776	1777	1.03212E+000	2.69758E-002	0.00000E+000	1.03320E+000	-1.04421E-004	11	...........	-327.56
	1784	1785	1.02388E+000	2.33911E-002	0.00000E+000	1.02520E+000	-9.90214E-005	10	...........	-327.56
	1792	1793	1.01593E+000	1.98184E-002	0.00000E+000	1.01720E+000	-1.01188E-004	10	...........	-327.56
	1800	1801	1.00797E+000	1.65952E-002	0.00000E+000	1.00920E+000	-1.02488E-004	10	...........	-327.56
	1808	1809	1.00000E+000	1.36872E-002	0.00000E+000	1.00120E+000	-1.05071E-004	10	...........	-327.56
	1816	1817	9.91989E-001	1.12862E-002	0.00000E+000	9.93200E-001	-1.02655E-004	10	...........	-327.56
	1824	1825	9.84087E-001	9.22832E-003	0.00000E+000	9.85200E-001	-1.01638E-004	10	...........	-327.56
	1832	1833	9.76121E-001	7.65027E-003	0.00000E+000	9.77200E-001	-1.03371E-004	10	...........	-327.56
	1840	1841	9.68087E-001	6.55128E-003	0.00000E+000	9.69200E-001	-1.05355E-004	10	...........	-327.56
	1848	1849	9.60117E-001	5.68688E-003	0.00000E+000	9.61200E-001	-1.02655E-004	10	...........	-327.56
	1856	1857	9.52181E-001	5.03393E-003	0.00000E+000	9.53200E-001	-1.04138E-004	10	...........	-327.56
	1864	1865	9.44146E-001	4.52039E-003	0.00000E+000	9.45200E-001	-1.05305E-004	10	...........	-327.56
	1872	1873	9.36104E-001	4.08053E-003	0.00000E+000	9.37200E-001	-1.03638E-004	10	...........	-327.56
	1880	1881	9.28211E-001	3.74449E-003	0.00000E+000	9.29200E-001	-1.01105E-004	10	...........	-327.56
	1888	1889	9.20220E-001	3.49032E-003	0.00000E+000	9.21200E-001	-1.02071E-004	10	...........	-327.56
	1896	1897	9.12194E-001	3.33262E-003	0.00000E+000	9.13200E-001	-1.05571E-004	10	...........	-327.56
	1904	1905	9.04271E-001	3.25238E-003	0.00000E+000	9.05200E-001	-1.03038E-004	10	...........	-327.56
	1912	1913	8.96234E-001	3.45233E-003	0.00000E+000	8.97200E-001	-1.02221E-004	10	...........	-327.56
	1920	1921	8.88209E-001	3.24812E-003	0.00000E+000	8.89200E-001	-1.01938E-004	10	...........	-327.56
	1928	1929	8.80288E-001	3.10882E-003	0.00000E+000	8.81200E-001	-1.00371E-004	10	...........	-327.56
	1936	1937	8.72270E-001	2.99906E-003	0.00000E+000	8.73200E-001	-1.02471E-004	10	...........	-327.56
	1944	1945	8.64244E-001	2.94467E-003	0.00000E+000	8.65200E-001	-1.00321E-004	10	...........	-327.56
	1952	1953	8.56321E-001	2.93718E-003	0.00000E+000	8.57200E-001	-1.01688E-004	10	...........	-327.56
	1960	1961	8.48301E-001	2.92542E-003	0.00000E+000	8.49200E-001	-1.00905E-004	10	...........	-327.56
	1968	1969	8.40258E-001	2.88304E-003	0.00000E+000	8.41200E-001	-1.02255E-004	10	...........	-327.56
	1976	1977	8.32216E-001	2.84472E-003	0.00000E+000	8.33200E-001	-1.02838E-004	10	...........	-327.56
	1984	1985	8.24312E-001	2.81149E-003	0.00000E+000	8.25200E-001	-1.03188E-004	10	...........	-327.56
	1992	1993	8.16324E-001	2.78392E-003	0.00000E+000	8.17200E-001	-1.03105E-004	10	...........	-327.56
	2000	2001	8.08292E-001	2.78452E-003	0.00000E+000	8.09200E-001	-1.04938E-004	10	...........	-327.56
	2008	2009	8.00369E-001	2.81498E-003	0.00000E+000	8.01200E-001	-1.01755E-004	10	...........	-327.56
	2016	2017	7.92336E-001	2.82074E-003	0.00000E+000	7.93200E-001	-1.04021E-004	10	...........	-327.56
	2024	2025	7.84321E-001	2.88040E-003	0.00000E+000	7.85200E-001	-9.97548E-005	10	...........	-327.56
	2032	2033	7.76388E-001	2.89834E-003	0.00000E+000	7.77200E-001	-1.02221E-004	10	...........	-327.56
	2040	2041	7.68357E-001	2.86599E-003	0.00000E+000	7.69200E-001	-1.00921E-004	10	...........	-327.56
	2048	2049	7.60347E-001	2.81658E-003	0.00000E+000	7.61200E-001	-1.04788E-004	10	...........	-327.56
	2056	2057	7.52419E-001	2.73931E-003	0.00000E+000	7.53200E-001	-1.01855E-004	10	...........	-327.56
	2064	2065	7.44389E-001	2.69108E-003	0.00000E+000	7.45200E-001	-1.02755E-004	10	...........	-327.56
	2072	2073	7.36358E-001	2.68563E-003	0.00000E+000	7.37200E-001	-1.01555E-004	10	...........	-327.56
	2080	2081	7.28432E-001	2.61843E-003	0.00000E+000	7.29200E-001	-1.03388E-004	10	...........	-327.56
	2088	2089	7.20415E-001	2.51782E-003	0.00000E+000	7.21200E-001	-1.00388E-004	10	...........	-327.56
	2096	2097	7.12416E-001	2.47883E-003	0.00000E+000	7.13200E-001	-1.00105E-004	10	...........	-327.56
	2104	2105	7.04382E-001	2.52634E-003	0.00000E+000	7.05200E-001	-1.00005E-004	10	...........	-327.56
	2112	2113	6.96493E-001	2.47659E-003	0.00000E+000	6.97200E-001	-1.02388E-004	10	...........	-327.56
	2120	2121	6.88188E-001	2.40954E-003	0.00000E+000	6.89200E-001	-1.02721E-004	9	...........	-327.56
	2128	2129	6.80118E-001	2.42825E-003	0.00000E+000	6.81200E-001	-1.01471E-004	9	...........	-327.56
	2136	2137	6.72234E-001	2.41642E-003	0.00000E+000	6.73200E-001	-9.82881E-005	9	...........	-327.56
	2144	2145	6.64214E-001	2.30209E-003	0.00000E+000	6.65200E-001	-1.00171E-004	9	...........	-327.56
	2152	2153	6.56197E-001	2.21523E-003	0.00000E+000	6.57200E-001	-1.01455E-004	9	...........	-327.56
	2160	2161	6.48285E-001	2.11596E-003	0.00000E+000	6.49200E-001	-1.02388E-004	9	...........	-327.56
	2168	2169	6.40261E-001	2.00793E-003	0.00000E+000	6.41200E-001	-9.94381E-005	9	...........	-327.56
	2176	2177	6.32243E-001	2.01895E-003	0.00000E+000	6.33200E-001	-1.03388E-004	9	...........	-327.56
	2184	2185	6.24321E-001	1.91818E-003	0.00000E+000	6.25200E-001	-1.01188E-004	9	...........	-327.56
	2192	2193	6.16307E-001	1.79387E-003	0.00000E+000	6.17200E-001	-1.02538E-004	9	...........	-327.56
	2200	2201	6.08314E-001	1.75099E-003	0.00000E+000	6.09200E-001	-1.00905E-004	9	...........	-327.56
	2208	2209	6.00398E-001	1.57338E-003	0.00000E+000	6.01200E-001	-1.02505E-004	9	...........	-327.56
	2216	2217	5.92409E-001	1.39112E-003	0.00000E+000	5.93200E-001	-1.01171E-004	9	...........	-327.56
	2224	2225	5.84389E-001	1.19761E-003	0.00000E+000	5.85200E-001	-1.05588E-004	9	...........	-327.56
	2232	2233	5.76366E-001	1.09353E-003	0.00000E+000	5.77200E-001	-1.02721E-004	9	...........	-327.56
	2240	2241	5.68478E-001	9.95492E-004	0.00000E+000	5.69200E-001	-1.02121E-004	9	...........	-327.56
	2248	2249	5.60456E-001	8.66800E-004	0.00000E+000	5.61200E-001	-1.04005E-004	9	...........	-327.56
	2256	2257	5.52440E-001	7.02195E-004	0.00000E+000	5.53200E-001	-1.09071E-004	9	...........	-327.56
	2264	2265	5.44573E-001	5.03650E-004	0.00000E+000	5.45200E-001	-1.02038E-004	9	...........	-327.56
	2272	2273	5.36563E-001	2.14064E-004	0.00000E+000	5.37200E-001	-1.04355E-004	9	...........	-327.56
	2280	2281	5.28795E-001	-1.90530E-005	0.00000E+000	5.29200E-001	-9.69714E-005	7	...........	-327.56
	2288	2289	5.20893E-001	-2.01462E-004	0.00000E+000	5.21200E-001	-9.82381E-005	8	...........	-327.56
	2296	2297	5.12681E-001	-5.26255E-004	0.00000E+000	5.13200E-001	-1.03855E-004	9	...........	-327.56
	2304	2305	5.04740E-001	-7.95559E-004	0.00000E+000	5.05200E-001	-1.03538E-004	9	...........	-327.56
	2312	2313	4.96828E-001	-1.06131E-003	0.00000E+000	4.97200E-001	-1.04055E-004	9	...........	-327.56
	2320	2321	4.88851E-001	-1.32500E-003	0.00000E+000	4.89200E-001	-1.06371E-004	9	...........	-327.56
	2328	2329	4.80833E-001	-1.56058E-003	0.00000E+000	4.81200E-001	-1.01821E-004	9	...........	-327.56
	2336	2337	4.72923E-001	-1.83022E-003	0.00000E+000	4.73200E-001	-9.94214E-005	9	...........	-327.56
	2344	2345	4.64980E-001	-2.05581E-003	0.00000E+000	4.65200E-001	-1.01171E-004	9	...........	-327.56
	2352	2353	4.56977E-001	-2.31656E-003	0.00000E+000	4.57200E-001	-9.67548E-005	9	...........	-327.56
	2360	2361	4.48974E-001	-2.58512E-003	0.00000E+000	4.49200E-001	-9.15714E-005	9	...........	-327.56
	2368	2369	4.40767E-001	-2.83532E-003	0.00000E+000	4.41200E-001	-1.02271E-004	10	...........	-327.56
	2376	2377	4.32729E-001	-3.10172E-003	0.00000E+000	4.33200E-001	-1.03855E-004	10	...........	-327.56
	2384	2385	4.24698E-001	-3.34259E-003	0.00000E+000	4.25200E-001	-1.03188E-004	10	...........	-327.56
	2392	2393	4.16777E-001	-3.56786E-003	0.00000E+000	4.17200E-001	-1.02338E-004	10	...........	-327.56
	2400	2401	4.08753E-001	-3.77895E-003	0.00000E+000	4.09200E-001	-1.01955E-004	10	...........	-327.56
	2408	2409	4.00743E-001	-3.96153E-003	0.00000E+000	4.01200E-001	-1.04155E-004	10	...........	-327.56
	2416	2417	3.92810E-001	-4.10470E-003	0.00000E+000	3.93200E-001	-1.07038E-004	10	...........	-327.56
	2424	2425	3.84779E-001	-4.27813E-003	0.00000E+000	3.85200E-001	-1.01871E-004	10	...........	-327.56
	2432	2433	3.76753E-001	-4.47531E-003	0.00000E+000	3.77200E-001	-1.04121E-004	10	...........	-327.56
	2440	2441	3.68813E-001	-4.63603E-003	0.00000E+000	3.69200E-001	-1.06538E-004	10	...........	-327.56
	2448	2449	3.60797E-001	-4.74896E-003	0.00000E+000	3.61200E-001	-1.02855E-004	10	...........	-327.56
	2456	2457	3.52776E-001	-4.95411E-003	0.00000E+000	3.53200E-001	-1.07188E-004	10	...........	-327.56
	2464	2465	3.44844E-001	-5.12630E-003	0.00000E+000	3.45200E-001	-1.10655E-004	10	...........	-327.56
	2472	2473	3.36842E-001	-5.24282E-003	0.00000E+000	3.37200E-001	-1.08555E-004	10	...........	-327.56
	2480	2481	3.28805E-001	-5.37112E-003	0.00000E+000	3.29200E-001	-1.05171E-004	10	...........	-327.56
	2488	2489	3.20772E-001	-5.47255E-003	0.00000E+000	3.21200E-001	-1.07788E-004	10	...........	-327.56
	2496	2497	3.12874E-001	-5.56248E-003	0.00000E+000	3.13200E-001	-1.08038E-004	10	...........	-327.56
	2504	2505	3.04886E-001	-5.67542E-003	0.00000E+000	3.05200E-001	-1.07405E-004	10	...........	-327.56
	2512	2513	2.96838E-001	-5.81919E-003	0.00000E+000	2.97200E-001	-1.06255E-004	10	...........	-327.56
	2520	2521	2.88931E-001	-5.98234E-003	0.00000E+000	2.89200E-001	-1.08088E-004	10	...........	-327.56
	2528	2529	2.80899E-001	-6.17940E-003	0.00000E+000	2.81200E-001	-1.08021E-004	10	...........	-327.56
	2536	2537	2.72894E-001	-6.38449E-003	0.00000E+000	2.73200E-001	-1.05238E-004	10	...........	-327.56
	2544	2545	2.64965E-001	-6.58422E-003	0.00000E+000	2.65200E-001	-1.09121E-004	10	...........	-327.56
	2552	2553	2.56936E-001	-6.74806E-003	0.00000E+000	2.57200E-001	-1.10088E-004	10	...........	-327.56
	2560	2561	2.48922E-001	-6.94713E-003	0.00000E+000	2.49200E-001	-1.08505E-004	10	...........	-327.56
	2568	2569	2.40993E-001	-7.23390E-003	0.00000E+000	2.41200E-001	-1.09238E-004	10	...........	-327.56
	2576	2577	2.32986E-001	-7.51248E-003	0.00000E+000	2.33200E-001	-1.09088E-004	10	...........	-327.56
	2584	2585	2.24959E-001	-7.79146E-003	0.00000E+000	2.25200E-001	-1.07021E-004	10	...........	-327.56
	2592	2593	2.16991E-001	-8.13549E-003	0.00000E+000	2.17200E-001	-1.06455E-004	10	...........	-327.56
	2600	2601	2.09014E-001	-8.53073E-003	0.00000E+000	2.09200E-001	-1.08038E-004	10	...........	-327.56
	2608	2609	2.01006E-001	-8.87367E-003	0.00000E+000	2.01200E-001	-1.05688E-004	10	...........	-327.56
	2616	2617	1.92959E-001	-9.17509E-003	0.00000E+000	1.93200E-001	-1.07455E-004	10	...........	-327.56
	2624	2625	1.85055E-001	-9.36945E-003	0.00000E+000	1.85200E-001	-1.05971E-004	10	...........	-327.56
	2632	2633	1.77025E-001	-9.45333E-003	0.00000E+000	1.77200E-001	-1.06155E-004	10	...........	-327.56
	2640	2641	1.68997E-001	-9.30898E-003	0.00000E+000	1.69200E-001	-1.06171E-004	10	...........	-327.56
	2648	2649	1.61063E-001	-8.87442E-003	0.00000E+000	1.61200E-001	-1.04821E-004	10	...........	-327.56
	2656	2657	1.53034E-001	-8.30449E-003	0.00000E+000	1.53200E-001	-1.03205E-004	10	...........	-327.56
	2664	2665	1.45010E-001	-7.74121E-003	0.00000E+000	1.45200E-001	-1.06821E-004	10	...........	-327.56
	2672	2673	1.37063E-001	-7.18578E-003	0.00000E+000	1.37200E-001	-1.07121E-004	10	...........	-327.56
	2680	2681	1.29040E-001	-6.61618E-003	0.00000E+000	1.29200E-001	-1.07138E-004	10	...........	-327.56
	2688	2689	1.21006E-001	-6.07080E-003	0.00000E+000	1.21200E-001	-1.06005E-004	10	...........	-327.56
	2696	2697	1.13052E-001	-5.54382E-003	0.00000E+000	1.13200E-001	-1.03621E-004	10	...........	-327.56
	2704	2705	1.05050E-001	-5.10918E-003	0.00000E+000	1.05200E-001	-1.07455E-004	10	...........	-327.56
	2712	2713	9.70483E-002	-4.80630E-003	0.00000E+000	9.72000E-002	-1.07488E-004	10	...........	-327.56
	2720	2721	8.90820E-002	-4.56044E-003	0.00000E+000	8.92000E-002	-1.06171E-004	10	...........	-327.56
	2728	2729	8.10934E-002	-4.35197E-003	0.00000E+000	8.12000E-002	-1.05488E-004	10	...........	-327.56
	2736	2737	7.30497E-002	-4.10065E-003	0.00000E+000	7.32000E-002	-1.03005E-004	10	...........	-327.56
	2744	2745	6.50132E-002	-3.95412E-003	0.00000E+000	6.52000E-002	-1.09138E-004	10	...........	-327.56
	2752	2753	5.71096E-002	-3.78638E-003	0.00000E+000	5.72000E-002	-1.05705E-004	10	...........	-327.56
	2760	2761	4.90704E-002	-3.68646E-003	0.00000E+000	4.92000E-002	-1.03971E-004	10	...........	-327.56
	2768	2769	4.10391E-002	-3.57629E-003	0.00000E+000	4.12000E-002	-1.06188E-004	10	...........	-327.56
	2776	2777	3.31214E-002	-3.49268E-003	0.00000E+000	3.32000E-002	-1.04038E-004	10	...........	-327.56
	2784	2785	2.50807E-002	-3.42459E-003	0.00000E+000	2.52000E-002	-1.06588E-004	10	...........	-327.56
	2792	2793	1.70575E-002	-3.39880E-003	0.00000E+000	1.72000E-002	-1.07455E-004	10	...........	-327.56
	2800	2801	9.09541E-003	-3.35771E-003	0.00000E+000	9.20004E-003	-1.06038E-004	10	...........	-327.56
	2808	2809	1.11139E-003	-3.34969E-003	0.00000E+000	1.20002E-003	-1.06905E-004	10	...........	-327.56
	2816	2817	-6.69355E-003	-3.34212E-003	0.00000E+000	-6.79997E-003	-1.09155E-004	10	...........	-327.56
	2824	2825	-1.46417E-002	-3.35707E-003	0.00000E+000	-1.48000E-002	-1.04655E-004	10	...........	-327.56
	2832	2833	-2.26395E-002	-3.38046E-003	0.00000E+000	-2.28000E-002	-1.04538E-004	10	...........	-327.56
	2840	2841	-3.06705E-002	-3.37850E-003	0.00000E+000	-3.08000E-002	-1.08421E-004	10	...........	-327.56
	2848	2849	-3.86319E-002	-3.37163E-003	0.00000E+000	-3.88000E-002	-1.06421E-004	10	...........	-327.56
	2856	2857	-4.66155E-002	-3.37463E-003	0.00000E+000	-4.68000E-002	-1.04971E-004	10	...........	-327.56
	2864	2865	-5.46433E-002	-3.39951E-003	0.00000E+000	-5.48000E-002	-1.08321E-004	10	...........	-327.56
	2872	2873	-6.26687E-002	-3.43503E-003	0.00000E+000	-6.28000E-002	-1.10571E-004	10	...........	-327.56
	2880	2881	-7.05917E-002	-3.46343E-003	0.00000E+000	-7.08000E-002	-1.03671E-004	10	...........	-327.56
	2888	2889	-7.86220E-002	-3.48744E-003	0.00000E+000	-7.88000E-002	-1.05921E-004	10	...........	-327.56
	2896	2897	-8.66372E-002	-3.47128E-003	0.00000E+000	-8.68000E-002	-1.07155E-004	10	...........	-327.56
	2904	2905	-9.45857E-002	-3.45652E-003	0.00000E+000	-9.48000E-002	-1.05521E-004	10	...........	-327.56
	2912	2913	-1.02550E-001	-3.49206E-003	0.00000E+000	-1.02800E-001	-1.06521E-004	10	...........	-327.56
	2920	2921	-1.10534E-001	-3.57616E-003	0.00000E+000	-1.10800E-001	-1.08071E-004	10	...........	-327.56
	2928	2929	-1.18520E-001	-3.64013E-003	0.00000E+000	-1.18800E-001	-1.08021E-004	10	...........	-327.56
	2936	2937	-1.26521E-001	-3.67941E-003	0.00000E+000	-1.26800E-001	-1.06121E-004	10	...........	-327.56
	2944	2945	-1.34526E-001	-3.71679E-003	0.00000E+000	-1.34800E-001	-1.05771E-004	10	...........	-327.56
	2952	2953	-1.42508E-001	-3.76933E-003	0.00000E+000	-1.42800E-001	-1.04521E-004	10	...........	-327.56
	2960	2961	-1.50502E-001	-3.87607E-003	0.00000E+000	-1.50800E-001	-1.03255E-004	10	...........	-327.56
	2968	2969	-1.58503E-001	-3.98705E-003	0.00000E+000	-1.58800E-001	-1.08938E-004	10	...........	-327.56
	2976	2977	-1.66494E-001	-4.08355E-003	0.00000E+000	-1.66800E-001	-1.07071E-004	10	...........	-327.56
	2984	2985	-1.74482E-001	-4.20218E-003	0.00000E+000	-1.74800E-001	-1.06738E-004	10	...........	-327.56
	2992	2993	-1.82500E-001	-4.32676E-003	0.00000E+000	-1.82800E-001	-1.06955E-004	10	...........	-327.56
[...]
	10740	10741	5.30314E-001	2.89622E-002	0.00000E+000	5.31000E-001	-1.05555E-004	11	...........	-327.56
	10746	10747	5.36337E-001	2.84559E-002	0.00000E+000	5.37000E-001	-1.04938E-004	11	...........	-327.56
	10752	10753	5.42373E-001	2.84671E-002	0.00000E+000	5.43000E-001	-1.05621E-004	11	...........	-327.56
	10758	10759	5.48363E-001	2.80784E-002	0.00000E+000	5.49000E-001	-1.07938E-004	11	...........	-327.56
	10764	10765	5.54301E-001	2.83660E-002	0.00000E+000	5.55000E-001	-1.03338E-004	11	...........	-327.56
	10770	10771	5.60314E-001	2.77468E-002	0.00000E+000	5.61000E-001	-1.03955E-004	11	...........	-327.56
	10776	10777	5.66345E-001	2.74371E-002	0.00000E+000	5.67000E-001	-1.07605E-004	11	...........	-327.56
	10782	10783	5.72339E-001	2.71514E-002	0.00000E+000	5.73000E-001	-1.03788E-004	11	...........	-327.56
	10788	10789	5.78264E-001	2.72025E-002	0.00000E+000	5.79000E-001	-1.04171E-004	11	...........	-327.56
	10794	10795	5.84302E-001	2.64943E-002	0.00000E+000	5.85000E-001	-1.04721E-004	11	...........	-327.56
	10800	10801	5.90339E-001	2.67271E-002	0.00000E+000	5.91000E-001	-1.05121E-004	11	...........	-327.56
	10806	10807	5.96330E-001	2.62139E-002	0.00000E+000	5.97000E-001	-1.03188E-004	11	...........	-327.56
	10812	10813	6.02240E-001	2.63517E-002	0.00000E+000	6.03000E-001	-1.02138E-004	11	...........	-327.56
	10818	10819	6.08279E-001	2.66116E-002	0.00000E+000	6.09000E-001	-1.00855E-004	11	...........	-327.56
	10824	10825	6.14316E-001	2.62180E-002	0.00000E+000	6.15000E-001	-1.08021E-004	11	...........	-327.56
	10830	10831	6.20308E-001	2.59054E-002	0.00000E+000	6.21000E-001	-1.03421E-004	11	...........	-327.56
	10836	10837	6.26296E-001	2.55693E-002	0.00000E+000	6.27000E-001	-1.00671E-004	11	...........	-327.56
	10842	10843	6.32253E-001	2.54217E-002	0.00000E+000	6.33000E-001	-1.05238E-004	11	...........	-327.56
	10848	10849	6.38295E-001	2.46958E-002	0.00000E+000	6.39000E-001	-1.06071E-004	11	...........	-327.56
	10854	10855	6.44295E-001	2.50707E-002	0.00000E+000	6.45000E-001	-1.04655E-004	11	...........	-327.56
	10860	10861	6.50310E-001	2.42407E-002	0.00000E+000	6.51000E-001	-1.02055E-004	11	...........	-327.56
	10866	10867	6.55947E-001	2.43619E-002	0.00000E+000	6.57000E-001	-1.00271E-004	10	...........	-327.56
	10872	10873	6.61954E-001	2.40156E-002	0.00000E+000	6.63000E-001	-1.00455E-004	10	...........	-327.56
	10878	10879	6.67998E-001	2.35052E-002	0.00000E+000	6.69000E-001	-1.00705E-004	10	...........	-327.56
	10884	10885	6.74026E-001	2.33330E-002	0.00000E+000	6.75000E-001	-1.03105E-004	10	...........	-327.56
	10890	10891	6.79942E-001	2.34685E-002	0.00000E+000	6.81000E-001	-1.02521E-004	10	...........	-327.56
	10896	10897	6.85949E-001	2.34862E-002	0.00000E+000	6.87000E-001	-1.01871E-004	10	...........	-327.56
	10902	10903	6.91985E-001	2.27102E-002	0.00000E+000	6.93000E-001	-1.00188E-004	10	...........	-327.56
	10908	10909	6.98015E-001	2.25440E-002	0.00000E+000	6.99000E-001	-1.01488E-004	10	...........	-327.56
	10914	10915	7.03992E-001	2.27291E-002	0.00000E+000	7.05000E-001	-9.99548E-005	10	...........	-327.56
	10920	10921	7.09961E-001	2.21259E-002	0.00000E+000	7.11000E-001	-9.95048E-005	10	...........	-327.56
	10926	10927	7.15970E-001	2.17249E-002	0.00000E+000	7.17000E-001	-9.96881E-005	10	...........	-327.56
	10932	10933	7.21975E-001	2.17169E-002	0.00000E+000	7.23000E-001	-1.01755E-004	10	...........	-327.56
	10938	10939	7.27964E-001	2.13386E-002	0.00000E+000	7.29000E-001	-1.03055E-004	10	...........	-327.56
	10944	10945	7.33913E-001	2.08874E-002	0.00000E+000	7.35000E-001	-1.01871E-004	10	...........	-327.56
	10950	10951	7.39927E-001	2.05806E-002	0.00000E+000	7.41000E-001	-1.01255E-004	10	...........	-327.56
	10956	10957	7.45964E-001	2.05148E-002	0.00000E+000	7.47000E-001	-1.01155E-004	10	...........	-327.56
	10962	10963	7.51961E-001	2.03509E-002	0.00000E+000	7.53000E-001	-1.00088E-004	10	...........	-327.56
	10968	10969	7.57893E-001	1.99712E-002	0.00000E+000	7.59000E-001	-1.00455E-004	10	...........	-327.56
	10974	10975	7.63925E-001	1.97796E-002	0.00000E+000	7.65000E-001	-1.00571E-004	10	...........	-327.56
	10980	10981	7.69948E-001	1.95494E-002	0.00000E+000	7.71000E-001	-1.00938E-004	10	...........	-327.56
	10986	10987	7.75955E-001	1.93753E-002	0.00000E+000	7.77000E-001	-1.02455E-004	10	...........	-327.56
	10992	10993	7.81863E-001	1.91082E-002	0.00000E+000	7.83000E-001	-1.04021E-004	10	...........	-327.56
	10998	10999	7.87907E-001	1.90542E-002	0.00000E+000	7.89000E-001	-9.92214E-005	10	...........	-327.56
	11004	11005	7.93929E-001	1.89760E-002	0.00000E+000	7.95000E-001	-1.01521E-004	10	...........	-327.56
	11010	11011	7.99952E-001	1.86571E-002	0.00000E+000	8.01000E-001	-1.00071E-004	10	...........	-327.56
	11016	11017	8.05940E-001	1.85431E-002	0.00000E+000	8.07000E-001	-1.01338E-004	10	...........	-327.56
	11022	11023	8.11915E-001	1.82917E-002	0.00000E+000	8.13000E-001	-1.00221E-004	10	...........	-327.56
	11028	11029	8.17922E-001	1.81676E-002	0.00000E+000	8.19000E-001	-1.01655E-004	10	...........	-327.56
	11034	11035	8.23916E-001	1.80772E-002	0.00000E+000	8.25000E-001	-1.01921E-004	10	...........	-327.56
	11040	11041	8.29892E-001	1.78365E-002	0.00000E+000	8.31000E-001	-1.01155E-004	10	...........	-327.56
	11046	11047	8.35846E-001	1.75877E-002	0.00000E+000	8.37000E-001	-1.00405E-004	10	...........	-327.56
	11052	11053	8.41874E-001	1.75529E-002	0.00000E+000	8.43000E-001	-1.00821E-004	10	...........	-327.56
	11058	11059	8.47917E-001	1.76062E-002	0.00000E+000	8.49000E-001	-1.03055E-004	10	...........	-327.56
	11064	11065	8.53896E-001	1.74838E-002	0.00000E+000	8.55000E-001	-9.87381E-005	10	...........	-327.56
	11070	11071	8.59819E-001	1.73371E-002	0.00000E+000	8.61000E-001	-9.84548E-005	10	...........	-327.56
	11076	11077	8.65857E-001	1.71786E-002	0.00000E+000	8.67000E-001	-1.01738E-004	10	...........	-327.56
	11082	11083	8.71911E-001	1.69731E-002	0.00000E+000	8.73000E-001	-1.03605E-004	10	...........	-327.56
	11088	11089	8.77883E-001	1.69549E-002	0.00000E+000	8.79000E-001	-1.01705E-004	10	...........	-327.56
	11094	11095	8.83804E-001	1.68631E-002	0.00000E+000	8.85000E-001	-9.98214E-005	10	...........	-327.56
	11100	11101	8.89831E-001	1.67315E-002	0.00000E+000	8.91000E-001	-1.02755E-004	10	...........	-327.56
	11106	11107	8.95880E-001	1.66801E-002	0.00000E+000	8.97000E-001	-1.00305E-004	10	...........	-327.56
	11112	11113	9.01882E-001	1.65617E-002	0.00000E+000	9.03000E-001	-1.00805E-004	10	...........	-327.56
	11118	11119	9.07887E-001	1.64385E-002	0.00000E+000	9.09000E-001	-1.01038E-004	10	...........	-327.56
	11124	11125	9.13823E-001	1.63064E-002	0.00000E+000	9.15000E-001	-1.02105E-004	10	...........	-327.56
	11130	11131	9.19886E-001	1.62255E-002	0.00000E+000	9.21000E-001	-1.02171E-004	10	...........	-327.56
	11136	11137	9.25837E-001	1.60624E-002	0.00000E+000	9.27000E-001	-1.05405E-004	10	...........	-327.56
	11142	11143	9.31845E-001	1.60762E-002	0.00000E+000	9.33000E-001	-9.97548E-005	10	...........	-327.56
	11148	11149	9.37773E-001	1.61843E-002	0.00000E+000	9.39000E-001	-1.02055E-004	10	...........	-327.56
	11154	11155	9.43808E-001	1.63392E-002	0.00000E+000	9.45000E-001	-1.00555E-004	10	...........	-327.56
	11160	11161	9.49814E-001	1.64184E-002	0.00000E+000	9.51000E-001	-1.01021E-004	10	...........	-327.56
	11166	11167	9.55816E-001	1.66411E-002	0.00000E+000	9.57000E-001	-1.00688E-004	10	...........	-327.56
	11172	11173	9.61696E-001	1.66974E-002	0.00000E+000	9.63000E-001	-1.02321E-004	10	...........	-327.56
	11178	11179	9.67780E-001	1.68775E-002	0.00000E+000	9.69000E-001	-1.02571E-004	10	...........	-327.56
	11184	11185	9.73775E-001	1.70484E-002	0.00000E+000	9.75000E-001	-1.01521E-004	10	...........	-327.56
	11190	11191	9.79783E-001	1.73173E-002	0.00000E+000	9.81000E-001	-9.95881E-005	10	...........	-327.56
	11196	11197	9.85730E-001	1.78831E-002	0.00000E+000	9.87000E-001	-1.00155E-004	10	...........	-327.56
	11202	11203	9.91722E-001	1.83280E-002	0.00000E+000	9.93000E-001	-1.00838E-004	10	...........	-327.56
	11208	11209	9.97710E-001	1.87258E-002	0.00000E+000	9.99000E-001	-1.02805E-004	10	...........	-327.56
	11214	11215	1.00376E+000	1.91780E-002	0.00000E+000	1.00500E+000	-1.00771E-004	10	...........	-327.56
	11220	11221	1.00975E+000	1.97571E-002	0.00000E+000	1.01100E+000	-1.01221E-004	10	...........	-327.56
	11226	11227	1.01568E+000	2.02793E-002	0.00000E+000	1.01700E+000	-1.01055E-004	10	...........	-327.56
	11232	11233	1.02168E+000	2.08473E-002	0.00000E+000	1.02300E+000	-1.01071E-004	10	...........	-327.56
	11238	11239	1.02768E+000	2.16209E-002	0.00000E+000	1.02900E+000	-9.84881E-005	10	...........	-327.56
	11244	11245	1.03367E+000	2.23953E-002	0.00000E+000	1.03500E+000	-1.01471E-004	10	...........	-327.56
	11250	11251	1.03957E+000	2.30717E-002	0.00000E+000	1.04100E+000	-9.94714E-005	10	...........	-327.56
	11256	11257	1.04559E+000	2.40470E-002	0.00000E+000	1.04700E+000	-9.90548E-005	10	...........	-327.56
	11262	11263	1.05161E+000	2.46199E-002	0.00000E+000	1.05300E+000	-9.98381E-005	10	...........	-327.56
	11268	11269	1.05760E+000	2.54743E-002	0.00000E+000	1.05900E+000	-1.02821E-004	10	...........	-327.56
	11274	11275	1.06350E+000	2.62393E-002	0.00000E+000	1.06500E+000	-1.00205E-004	10	...........	-327.56
	11280	11281	1.06984E+000	2.69076E-002	0.00000E+000	1.07100E+000	-1.04621E-004	11	...........	-327.56
	11286	11287	1.07584E+000	2.76540E-002	0.00000E+000	1.07700E+000	-1.01705E-004	11	...........	-327.56
	11292	11293	1.08189E+000	2.81205E-002	0.00000E+000	1.08300E+000	-1.01288E-004	11	...........	-327.56
	11298	11299	1.08787E+000	2.85038E-002	0.00000E+000	1.08900E+000	-1.01438E-004	11	...........	-327.56
	11304	11305	1.09381E+000	2.87656E-002	0.00000E+000	1.09500E+000	-1.02455E-004	11	...........	-327.56
	11310	11311	1.09983E+000	2.88746E-002	0.00000E+000	1.10100E+000	-1.02855E-004	11	...........	-327.56
	11316	11317	1.10587E+000	2.89499E-002	0.00000E+000	1.10700E+000	-1.02105E-004	11	...........	-327.56
	11322	11323	1.11187E+000	2.86889E-002	0.00000E+000	1.11300E+000	-1.03971E-004	11	...........	-327.56
	11328	11329	1.11780E+000	2.84882E-002	0.00000E+000	1.11900E+000	-1.04071E-004	11	...........	-327.56
	11334	11335	1.12382E+000	2.81891E-002	0.00000E+000	1.12500E+000	-1.00971E-004	11	...........	-327.56
	11340	11341	1.12981E+000	2.78689E-002	0.00000E+000	1.13100E+000	-1.02638E-004	11	...........	-327.56
	11346	11347	1.13582E+000	2.77389E-002	0.00000E+000	1.13700E+000	-1.01788E-004	11	...........	-327.56
	11352	11353	1.14173E+000	2.73417E-002	0.00000E+000	1.14300E+000	-1.05721E-004	11	...........	-327.56
	11358	11359	1.14775E+000	2.75392E-002	0.00000E+000	1.14900E+000	-1.05155E-004	11	...........	-327.56
	11364	11365	1.15379E+000	2.77634E-002	0.00000E+000	1.15500E+000	-1.07071E-004	11	...........	-327.56
	11370	11371	1.15981E+000	2.80973E-002	0.00000E+000	1.16100E+000	-1.04305E-004	11	...........	-327.56
	11376	11377	1.16569E+000	2.90515E-002	0.00000E+000	1.16700E+000	-1.06855E-004	11	...........	-327.56
	11382	11383	1.17173E+000	2.99092E-002	0.00000E+000	1.17300E+000	-1.02621E-004	11	...........	-327.56
	11388	11389	1.17772E+000	3.12601E-002	0.00000E+000	1.17900E+000	-1.02638E-004	11	...........	-327.56
	11394	11395	1.18376E+000	3.24760E-002	0.00000E+000	1.18500E+000	-1.01938E-004	11	...........	-327.56
	11400	11401	1.18975E+000	3.43584E-002	0.00000E+000	1.19100E+000	-1.04638E-004	11	...........	-327.56
	11406	11407	1.19568E+000	3.64161E-002	0.00000E+000	1.19700E+000	-1.02121E-004	11	...........	-327.56
	11412	11413	1.20171E+000	3.82266E-002	0.00000E+000	1.20300E+000	-1.03905E-004	11	...........	-327.56
	11418	11419	1.20774E+000	4.05107E-002	0.00000E+000	1.20900E+000	-1.04505E-004	11	...........	-327.56
	11424	11425	1.21372E+000	4.30622E-002	0.00000E+000	1.21500E+000	-1.05571E-004	11	...........	-327.56
	11430	11431	1.21966E+000	4.57638E-002	0.00000E+000	1.22100E+000	-1.00455E-004	11	...........	-327.56
	11436	11437	1.22566E+000	4.83246E-002	0.00000E+000	1.22700E+000	-1.04371E-004	11	...........	-327.56
	11442	11443	1.23169E+000	5.11801E-002	0.00000E+000	1.23300E+000	-1.03371E-004	11	...........	-327.56
	11448	11449	1.23770E+000	5.48137E-002	0.00000E+000	1.23900E+000	-1.04838E-004	11	...........	-327.56
	11454	11455	1.24360E+000	5.84497E-002	0.00000E+000	1.24500E+000	-1.03671E-004	11	...........	-327.56
	11460	11461	1.24964E+000	6.24986E-002	0.00000E+000	1.25100E+000	-1.04271E-004	11	...........	-327.56
	11466	11467	1.25564E+000	6.65024E-002	0.00000E+000	1.25700E+000	-1.04405E-004	11	...........	-327.56
	11472	11473	1.26164E+000	7.16648E-002	0.00000E+000	1.26300E+000	-1.01471E-004	11	...........	-327.56
	11478	11479	1.26755E+000	7.66916E-002	0.00000E+000	1.26900E+000	-1.00971E-004	11	...........	-327.56
	11484	11485	1.27357E+000	8.19781E-002	0.00000E+000	1.27500E+000	-1.04571E-004	11	...........	-327.56
	11490	11491	1.27957E+000	8.79291E-002	0.00000E+000	1.28100E+000	-1.02571E-004	11	...........	-327.56
	11496	11497	1.28560E+000	9.29805E-002	0.00000E+000	1.28700E+000	-1.03438E-004	11	...........	-327.56
	11502	11503	1.29158E+000	1.01157E-001	0.00000E+000	1.29300E+000	-1.01455E-004	11	...........	-327.56
	11508	11509	1.29753E+000	1.08177E-001	0.00000E+000	1.29900E+000	-1.04988E-004	11	...........	-327.56
	11514	11515	1.30350E+000	1.15647E-001	0.00000E+000	1.30500E+000	-1.02188E-004	11	...........	-327.56
	11520	11521	1.30952E+000	1.24286E-001	0.00000E+000	1.31100E+000	-9.80381E-005	11	...........	-327.56
	11526	11527	1.31553E+000	1.32520E-001	0.00000E+000	1.31700E+000	-1.00038E-004	11	...........	-327.56
	11532	11533	1.32150E+000	1.42608E-001	0.00000E+000	1.32300E+000	-1.00438E-004	11	...........	-327.56
	11538	11539	1.32744E+000	1.51769E-001	0.00000E+000	1.32900E+000	-1.01038E-004	11	...........	-327.56
	11544	11545	1.33342E+000	1.61168E-001	0.00000E+000	1.33500E+000	-9.99381E-005	11	...........	-327.56
	11550	11551	1.33941E+000	1.71293E-001	0.00000E+000	1.34100E+000	-1.01605E-004	11	...........	-327.56
	11556	11557	1.34532E+000	1.80369E-001	0.00000E+000	1.34700E+000	-1.04671E-004	11	...........	-327.56
	11562	11563	1.35131E+000	1.90243E-001	0.00000E+000	1.35300E+000	-1.01071E-004	11	...........	-327.56
	11568	11569	1.35732E+000	2.00425E-001	0.00000E+000	1.35900E+000	-9.91714E-005	11	...........	-327.56
	11574	11575	1.36332E+000	2.11405E-001	0.00000E+000	1.36500E+000	-9.96381E-005	11	...........	-327.56
	11580	11581	1.36928E+000	2.23002E-001	0.00000E+000	1.37100E+000	-9.87048E-005	11	...........	-327.56
	11586	11587	1.37521E+000	2.33624E-001	0.00000E+000	1.37700E+000	-9.82548E-005	11	...........	-327.56
	11592	11593	1.38121E+000	2.44204E-001	0.00000E+000	1.38300E+000	-9.93881E-005	11	...........	-327.56
	11598	11599	1.38722E+000	2.55419E-001	0.00000E+000	1.38900E+000	-1.01071E-004	11	...........	-327.56
	11604	11605	1.39320E+000	2.66247E-001	0.00000E+000	1.39500E+000	-9.91048E-005	11	...........	-327.56
	11610	11611	1.39942E+000	2.78341E-001	0.00000E+000	1.40100E+000	-1.06188E-004	12	...........	-327.56
	11616	11617	1.40543E+000	2.88944E-001	0.00000E+000	1.40700E+000	-1.02238E-004	12	...........	-327.56
	11622	11623	1.41146E+000	3.00465E-001	0.00000E+000	1.41300E+000	-1.02038E-004	12	...........	-327.56
	11628	11629	1.41746E+000	3.10713E-001	0.00000E+000	1.41900E+000	-1.04838E-004	12	...........	-327.56
	11634	11635	1.42336E+000	3.22276E-001	0.00000E+000	1.42500E+000	-1.04121E-004	12	...........	-327.56
	11640	11641	1.42938E+000	3.33187E-001	0.00000E+000	1.43100E+000	-1.04671E-004	12	...........	-327.56
	11646	11647	1.43538E+000	3.43848E-001	0.00000E+000	1.43700E+000	-1.03438E-004	12	...........	-327.56
	11652	11653	1.44140E+000	3.53335E-001	0.00000E+000	1.44300E+000	-1.00921E-004	12	...........	-327.56
	11658	11659	1.44728E+000	3.65359E-001	0.00000E+000	1.44900E+000	-1.07305E-004	12	...........	-327.56
	11664	11665	1.45332E+000	3.76647E-001	0.00000E+000	1.45500E+000	-1.00821E-004	12	...........	-327.56
	11670	11671	1.45933E+000	3.87619E-001	0.00000E+000	1.46100E+000	-1.04505E-004	12	...........	-327.56
	11676	11677	1.46535E+000	3.98477E-001	0.00000E+000	1.46700E+000	-9.95714E-005	12	...........	-327.56
	11682	11683	1.47132E+000	4.10393E-001	0.00000E+000	1.47300E+000	-1.06155E-004	12	...........	-327.56
	11688	11689	1.47726E+000	4.25755E-001	0.00000E+000	1.47900E+000	-1.05255E-004	12	...........	-327.56
	11694	11695	1.48325E+000	4.38932E-001	0.00000E+000	1.48500E+000	-1.04105E-004	12	...........	-327.56
	11700	11701	1.48928E+000	4.51394E-001	0.00000E+000	1.49100E+000	-1.03471E-004	12	...........	-327.56
	11706	11707	1.49527E+000	4.68049E-001	0.00000E+000	1.49700E+000	-1.03588E-004	12	...........	-327.56
	11712	11713	1.50119E+000	4.81331E-001	0.00000E+000	1.50300E+000	-1.04071E-004	12	...........	-327.56
	11718	11719	1.50717E+000	4.94388E-001	0.00000E+000	1.50900E+000	-1.04605E-004	12	...........	-327.56
	11724	11725	1.51321E+000	5.16241E-001	0.00000E+000	1.51500E+000	-1.02038E-004	12	...........	-327.56
	11730	11731	1.51920E+000	5.31819E-001	0.00000E+000	1.52100E+000	-1.01471E-004	12	...........	-327.56
	11736	11737	1.52513E+000	5.43725E-001	0.00000E+000	1.52700E+000	-1.03821E-004	12	...........	-327.56
	11742	11743	1.53115E+000	5.64742E-001	0.00000E+000	1.53300E+000	-1.06588E-004	12	...........	-327.56
	11748	11749	1.53712E+000	5.79877E-001	0.00000E+000	1.53900E+000	-1.05405E-004	12	...........	-327.56
	11754	11755	1.54312E+000	5.95020E-001	0.00000E+000	1.54500E+000	-9.58214E-005	12	...........	-327.56
	11760	11761	1.54902E+000	6.05380E-001	0.00000E+000	1.55100E+000	-1.00271E-004	12	...........	-327.56
	11766	11767	1.55510E+000	6.26642E-001	0.00000E+000	1.55700E+000	-1.02388E-004	12	...........	-327.56
	11772	11773	1.56104E+000	6.35388E-001	0.00000E+000	1.56300E+000	-9.99881E-005	12	...........	-327.56
	11778	11779	1.56707E+000	6.55190E-001	0.00000E+000	1.56900E+000	-1.01005E-004	12	...........	-327.56
	11784	11785	1.57306E+000	6.64713E-001	0.00000E+000	1.57500E+000	-1.00188E-004	12	...........	-327.56
	11790	11791	1.57908E+000	6.62983E-001	0.00000E+000	1.58100E+000	-1.06588E-004	12	...........	-327.56
	11796	11797	1.58501E+000	6.86670E-001	0.00000E+000	1.58700E+000	-1.04605E-004	12	...........	-327.56
	11802	11803	1.59102E+000	7.03153E-001	0.00000E+000	1.59300E+000	-1.00088E-004	12	...........	-327.56
	11808	11809	1.59703E+000	7.18164E-001	0.00000E+000	1.59900E+000	-1.02538E-004	12	...........	-327.56
	11814	11815	1.60297E+000	7.36133E-001	0.00000E+000	1.60500E+000	-1.01905E-004	12	...........	-327.56
	11820	11821	1.60894E+000	7.49101E-001	0.00000E+000	1.61100E+000	-1.04038E-004	12	...........	-327.56
	11826	11827	1.61497E+000	7.63361E-001	0.00000E+000	1.61700E+000	-1.00938E-004	12	...........	-327.56
	11832	11833	1.62097E+000	7.66591E-001	0.00000E+000	1.62300E+000	-1.04738E-004	12	...........	-327.56
	11838	11839	1.62688E+000	7.86779E-001	0.00000E+000	1.62900E+000	-1.06121E-004	12	...........	-327.56
	11844	11845	1.63289E+000	7.92662E-001	0.00000E+000	1.63500E+000	-1.06505E-004	12	...........	-327.56
	11850	11851	1.63888E+000	8.01979E-001	0.00000E+000	1.64100E+000	-1.01238E-004	12	...........	-327.56
	11856	11857	1.64489E+000	8.21656E-001	0.00000E+000	1.64700E+000	-1.00888E-004	12	...........	-327.56
	11862	11863	1.65089E+000	8.33535E-001	0.00000E+000	1.65300E+000	-1.00255E-004	12	...........	-327.56
	11868	11869	1.65680E+000	8.53564E-001	0.00000E+000	1.65900E+000	-1.02155E-004	12	...........	-327.56
	11874	11875	1.66281E+000	8.77070E-001	0.00000E+000	1.66500E+000	-1.01338E-004	12	...........	-327.56
	11880	11881	1.66883E+000	8.89683E-001	0.00000E+000	1.67100E+000	-1.01888E-004	12	...........	-327.56
	11886	11887	1.67483E+000	9.03705E-001	0.00000E+000	1.67700E+000	-1.00088E-004	12	...........	-327.56
	11892	11893	1.68075E+000	9.15494E-001	0.00000E+000	1.68300E+000	-1.00105E-004	12	...........	-327.56
	11898	11899	1.68677E+000	9.17929E-001	0.00000E+000	1.68900E+000	-1.02421E-004	12	...........	-327.56
	11904	11905	1.69278E+000	9.27568E-001	0.00000E+000	1.69500E+000	-1.03138E-004	12	...........	-327.56
	11909	11910	1.69780E+000	9.40963E-001	0.00000E+000	1.70000E+000	-1.02371E-004	12	...........	-327.56