File: testing/data/240902_01_MCL13_cswWE_CV20_initial_test.DTA
EXPLAIN
TAG	CV
TITLE	LABEL	Cyclic Voltammetry	Test &Identifier
DATE	LABEL	9/2/2024	Date
TIME	LABEL	15:32:11	Time
NOTES	NOTES	5	&Notes...

	WE: Ag wire
	RE: Ni/NiO
	CE: steel swirl
PSTAT	PSTAT	REF3000-48128	Potentiostat
VINIT	POTEN	0.00000E+000	F	Initial &E (V)
VLIMIT1	POTEN	-1.00000E+000	F	Scan Limit &1 (V)
VLIMIT2	POTEN	1.70000E+000	F	Scan Limit &2 (V)
VFINAL	POTEN	1.70000E+000	F	Final &E (V)
SCANRATE	QUANT	2.00000E+001	&Scan Rate (mV/s)
STEPSIZE	QUANT	1.00000E+000	St&ep Size (mV)
CYCLES	IQUANT	3	C&ycles (#)
IMODE	SELECTOR	0	I/E Range &Mode
IRANGE	QUANT	5.00000E+001	&Max Current (mA)
AREA	QUANT	1.00000E+000	Electrode &Area (cm^2)
ELECTRODETYPE	SELECTOR	1	Electrode Type
STRIPPING	TOGGLE	F	Used for Stripping
CONDIT	TWOPARAM	F	1.50000E+001	0.00000E+000	Conditionin&g	Time(s)	E(V)
DELAY	TWOPARAM	F	3.00000E+001	0.00000E+000	Init. De&lay	Time(s)	Stab.(mV/s)
EQDELAY	QUANT	0.00000E+000	Equil. &Time (s)
IRCOMP	SELECTOR	0	IRCom&p
PFCOR	QUANT	5.00000E+001	PF Corr. (ohm)
SAMPLINGMODE	SELECTOR	1	Sampling &Mode
EOC	QUANT	0	Open Circuit (V)
PSTATMODEL	IQUANT	5	Pstat Model
PSTATSECTION	LABEL	REF3000-48128	Pstat Section
PSTATSERIALNO	LABEL	48128	Pstat Serial Number
CTRLMODE	IQUANT	1	Control Mode
ELECTROMETER	IQUANT	0	RE=0 or CS=1
IESTAB	IQUANT	2	I/E Stability
CASPEED	IQUANT	4	Control Amp Speed
CONVENTION	IQUANT	1	Current Convention
ICHRANGE	IQUANT	2	Ich Range
ICHRANGEMODE	TOGGLE	F	Ich Auto Range
ICHOFFSETENABLE	TOGGLE	F	Ich Offset Enable
ICHOFFSET	QUANT	0	Ich Offset (V)
ICHFILTER	IQUANT	2	Ich Filter
VCHRANGE	IQUANT	3	Vch Range
VCHRANGEMODE	TOGGLE	T	Vch Auto Range
VCHOFFSETENABLE	TOGGLE	F	Vch Offset Enable
VCHOFFSET	QUANT	0	Vch Offset (V)
VCHFILTER	IQUANT	1	Vch Filter
ACHRANGE	IQUANT	2	Ach Range
ACHOFFSETENABLE	TOGGLE	F	Ach Offset Enable
ACHOFFSET	QUANT	0	Ach Offset (V)
ACHFILTER	IQUANT	1	Ach Filter
IERANGELOWERLIMIT	IQUANT	2	I/E Range Lower Limit
IERANGEMODE	TOGGLE	T	I/E AutoRange
IERANGE	IQUANT	11	I/E Range
POSFEEDENABLE	TOGGLE	F	Positive Feedback IR Comp
POSFEEDRESISTANCE	QUANT	0	Positive Feedback Resistance (ohm)
ACHSELECT	IQUANT	1	Ach Select
SENSECABLEID	IQUANT	14	Sense Cable ID
PWRCABLEID	IQUANT	7	Power Cable ID
DCCALDATE	LABEL	8/16/2024	DC Calibration Date
ACCALDATE	LABEL	8/16/2024	AC Calibration Date
THERMOSELECT	IQUANT	1	Thermo Select
FRAMEWORKVERSION	LABEL	7.10.3	Framework Version
INSTRUMENTVERSION	LABEL	4.91	Instrument Version
COMMVERSION	LABEL	5.10	Communications Version
CPUPLDVERSION	LABEL	6.00	CPU PLD Version
CTRLPLDVERSION	LABEL	3.21	CTRL PLD Version
PSTATPLDVERSION	LABEL	0.00	PSTAT PLD Version
COMPLIANCEVOLTAGE	IQUANT	0	Compliance Voltage
CURVE1	TABLE
	Pt	T	Vf	Im	Vu	Sig	Ach	IERange	Over	Temp
	#	s	V vs. Ref.	A	V	V	V	#	bits	deg C
	0	0.05	8.29814E-004	5.61071E-004	0.00000E+000	2.98023E-008	-2.70822E-003	11	...........	-327.56
	8	0.45	-8.37197E-003	1.53175E-004	0.00000E+000	-7.99996E-003	-2.70689E-003	8	...........	-327.56
	16	0.85	-1.61613E-002	-5.50668E-006	0.00000E+000	-1.60000E-002	-2.70622E-003	7	...........	-327.56
	24	1.25	-2.40388E-002	-1.09960E-004	0.00000E+000	-2.40000E-002	-2.71489E-003	8	...........	-327.56
	32	1.65	-3.19304E-002	-2.00744E-004	0.00000E+000	-3.20000E-002	-2.70889E-003	8	...........	-327.56
	40	2.05	-3.99602E-002	-2.88680E-004	0.00000E+000	-4.00000E-002	-2.70255E-003	9	...........	-327.56
	48	2.45	-4.79436E-002	-3.56729E-004	0.00000E+000	-4.80000E-002	-2.71455E-003	9	...........	-327.56
	56	2.85	-5.59292E-002	-4.23602E-004	0.00000E+000	-5.60000E-002	-2.70155E-003	9	...........	-327.56
	64	3.25	-6.39100E-002	-4.87448E-004	0.00000E+000	-6.40000E-002	-2.70122E-003	9	...........	-327.56
	72	3.65	-7.18901E-002	-5.48128E-004	0.00000E+000	-7.20000E-002	-2.71122E-003	9	...........	-327.56
	80	4.05	-7.98779E-002	-6.07144E-004	0.00000E+000	-8.00000E-002	-2.70489E-003	9	...........	-327.56
	88	4.45	-8.78654E-002	-6.65111E-004	0.00000E+000	-8.80000E-002	-2.69055E-003	9	...........	-327.56
	96	4.85	-9.58375E-002	-7.21716E-004	0.00000E+000	-9.60000E-002	-2.71522E-003	9	...........	-327.56
	104	5.25	-1.03831E-001	-7.78756E-004	0.00000E+000	-1.04000E-001	-2.70555E-003	9	...........	-327.56
	112	5.65	-1.11819E-001	-8.35398E-004	0.00000E+000	-1.12000E-001	-2.71422E-003	9	...........	-327.56
	120	6.05	-1.19810E-001	-8.92275E-004	0.00000E+000	-1.20000E-001	-2.70255E-003	9	...........	-327.56
	128	6.45	-1.27797E-001	-9.49928E-004	0.00000E+000	-1.28000E-001	-2.70122E-003	9	...........	-327.56
	136	6.85	-1.35777E-001	-1.00809E-003	0.00000E+000	-1.36000E-001	-2.71589E-003	9	...........	-327.56
	144	7.25	-1.43769E-001	-1.06742E-003	0.00000E+000	-1.44000E-001	-2.70455E-003	9	...........	-327.56
	152	7.65	-1.51750E-001	-1.12810E-003	0.00000E+000	-1.52000E-001	-2.71089E-003	9	...........	-327.56
	160	8.05	-1.59731E-001	-1.19044E-003	0.00000E+000	-1.60000E-001	-2.70455E-003	9	...........	-327.56
	168	8.45	-1.67724E-001	-1.25498E-003	0.00000E+000	-1.68000E-001	-2.69889E-003	9	...........	-327.56
	176	8.85	-1.75699E-001	-1.32149E-003	0.00000E+000	-1.76000E-001	-2.70689E-003	9	...........	-327.56
	184	9.25	-1.83684E-001	-1.38904E-003	0.00000E+000	-1.84000E-001	-2.71289E-003	9	...........	-327.56
	192	9.65	-1.91675E-001	-1.46081E-003	0.00000E+000	-1.92000E-001	-2.70489E-003	9	...........	-327.56
	200	10.05	-1.99649E-001	-1.53558E-003	0.00000E+000	-2.00000E-001	-2.70622E-003	9	...........	-327.56
	208	10.45	-2.07632E-001	-1.61234E-003	0.00000E+000	-2.08000E-001	-2.70222E-003	9	...........	-327.56
	216	10.85	-2.15617E-001	-1.69404E-003	0.00000E+000	-2.16000E-001	-2.69155E-003	9	...........	-327.56
	224	11.25	-2.23603E-001	-1.78041E-003	0.00000E+000	-2.24000E-001	-2.70989E-003	9	...........	-327.56
	232	11.65	-2.31576E-001	-1.86868E-003	0.00000E+000	-2.32000E-001	-2.69255E-003	9	...........	-327.56
	240	12.05	-2.39554E-001	-1.96814E-003	0.00000E+000	-2.40000E-001	-2.69622E-003	9	...........	-327.56
	248	12.45	-2.47533E-001	-2.07538E-003	0.00000E+000	-2.48000E-001	-2.70155E-003	9	...........	-327.56
	256	12.85	-2.55513E-001	-2.19169E-003	0.00000E+000	-2.56000E-001	-2.69655E-003	9	...........	-327.56
	264	13.25	-2.63491E-001	-2.32642E-003	0.00000E+000	-2.64000E-001	-2.69955E-003	9	...........	-327.56
	272	13.65	-2.71493E-001	-2.47360E-003	0.00000E+000	-2.72000E-001	-2.70722E-003	9	...........	-327.56
	280	14.05	-2.79481E-001	-2.65053E-003	0.00000E+000	-2.80000E-001	-2.71155E-003	9	...........	-327.56
	288	14.45	-2.87245E-001	-2.87691E-003	0.00000E+000	-2.88000E-001	-2.70922E-003	10	...........	-327.56
	296	14.85	-2.95211E-001	-3.15181E-003	0.00000E+000	-2.96000E-001	-2.70955E-003	10	...........	-327.56
	304	15.25	-3.03206E-001	-3.53009E-003	0.00000E+000	-3.04000E-001	-2.70055E-003	10	...........	-327.56
	312	15.65	-3.11183E-001	-4.09189E-003	0.00000E+000	-3.12000E-001	-2.71155E-003	10	...........	-327.56
	320	16.05	-3.19188E-001	-5.04996E-003	0.00000E+000	-3.20000E-001	-2.71555E-003	10	...........	-327.56
	328	16.45	-3.27110E-001	-6.81114E-003	0.00000E+000	-3.28000E-001	-2.71322E-003	10	...........	-327.56
	336	16.85	-3.35107E-001	-9.23159E-003	0.00000E+000	-3.36000E-001	-2.70489E-003	10	...........	-327.56
	344	17.25	-3.43101E-001	-1.20059E-002	0.00000E+000	-3.44000E-001	-2.71855E-003	10	...........	-327.56
	352	17.65	-3.51008E-001	-1.51129E-002	0.00000E+000	-3.52000E-001	-2.69855E-003	10	...........	-327.56
	360	18.05	-3.58971E-001	-1.85628E-002	0.00000E+000	-3.60000E-001	-2.70222E-003	10	...........	-327.56
	368	18.45	-3.66963E-001	-2.23619E-002	0.00000E+000	-3.68000E-001	-2.71255E-003	10	...........	-327.56
	376	18.85	-3.74841E-001	-2.65196E-002	0.00000E+000	-3.76000E-001	-2.70789E-003	10	...........	-327.56
	384	19.25	-3.82887E-001	-3.12575E-002	0.00000E+000	-3.84000E-001	-2.70989E-003	11	...........	-327.56
	392	19.65	-3.90908E-001	-3.63820E-002	0.00000E+000	-3.92000E-001	-2.71589E-003	11	...........	-327.56
	400	20.05	-3.98866E-001	-4.20914E-002	0.00000E+000	-4.00000E-001	-2.70389E-003	11	...........	-327.56
	408	20.45	-4.06878E-001	-4.83530E-002	0.00000E+000	-4.08000E-001	-2.71455E-003	11	...........	-327.56
	416	20.85	-4.14939E-001	-5.51903E-002	0.00000E+000	-4.16000E-001	-2.70422E-003	11	...........	-327.56
	424	21.25	-4.22926E-001	-6.25950E-002	0.00000E+000	-4.24000E-001	-2.70155E-003	11	...........	-327.56
	432	21.65	-4.30960E-001	-7.05099E-002	0.00000E+000	-4.32000E-001	-2.69589E-003	11	...........	-327.56
	440	22.05	-4.39031E-001	-7.89651E-002	0.00000E+000	-4.40000E-001	-2.68789E-003	11	...........	-327.56
	448	22.45	-4.47081E-001	-8.79299E-002	0.00000E+000	-4.48000E-001	-2.70255E-003	11	...........	-327.56
	456	22.85	-4.55032E-001	-9.73830E-002	0.00000E+000	-4.56000E-001	-2.69422E-003	11	...........	-327.56
	464	23.25	-4.63070E-001	-1.07313E-001	0.00000E+000	-4.64000E-001	-2.70355E-003	11	...........	-327.56
	472	23.65	-4.71088E-001	-1.17710E-001	0.00000E+000	-4.72000E-001	-2.70489E-003	11	...........	-327.56
	480	24.05	-4.79026E-001	-1.28620E-001	0.00000E+000	-4.80000E-001	-2.69022E-003	11	...........	-327.56
	488	24.45	-4.87047E-001	-1.40053E-001	0.00000E+000	-4.88000E-001	-2.70055E-003	11	...........	-327.56
	496	24.85	-4.95061E-001	-1.51959E-001	0.00000E+000	-4.96000E-001	-2.69455E-003	11	...........	-327.56
	504	25.25	-5.02987E-001	-1.64293E-001	0.00000E+000	-5.04000E-001	-2.70089E-003	11	...........	-327.56
	512	25.65	-5.11001E-001	-1.77115E-001	0.00000E+000	-5.12000E-001	-2.68355E-003	11	...........	-327.56
	520	26.05	-5.18955E-001	-1.90328E-001	0.00000E+000	-5.20000E-001	-2.69222E-003	11	...........	-327.56
	528	26.45	-5.26880E-001	-2.03996E-001	0.00000E+000	-5.28000E-001	-2.69755E-003	11	...........	-327.56
	536	26.85	-5.34862E-001	-2.18065E-001	0.00000E+000	-5.36000E-001	-2.69222E-003	11	...........	-327.56
	544	27.25	-5.42885E-001	-2.32552E-001	0.00000E+000	-5.44000E-001	-2.70789E-003	11	...........	-327.56
	552	27.65	-5.50803E-001	-2.47473E-001	0.00000E+000	-5.52000E-001	-2.69689E-003	11	...........	-327.56
	560	28.05	-5.58785E-001	-2.62860E-001	0.00000E+000	-5.60000E-001	-2.70222E-003	11	...........	-327.56
	568	28.45	-5.67043E-001	-2.79968E-001	0.00000E+000	-5.68000E-001	-2.69655E-003	12	...........	-327.56
	576	28.85	-5.75074E-001	-2.96806E-001	0.00000E+000	-5.76000E-001	-2.69289E-003	12	...........	-327.56
	584	29.25	-5.82975E-001	-3.15167E-001	0.00000E+000	-5.84000E-001	-2.68722E-003	12	...........	-327.56
	592	29.65	-5.90999E-001	-3.33819E-001	0.00000E+000	-5.92000E-001	-2.70289E-003	12	...........	-327.56
	600	30.05	-5.99009E-001	-3.52696E-001	0.00000E+000	-6.00000E-001	-2.70855E-003	12	...........	-327.56
	608	30.45	-6.06930E-001	-3.71806E-001	0.00000E+000	-6.08000E-001	-2.68989E-003	12	...........	-327.56
	616	30.85	-6.14910E-001	-3.90906E-001	0.00000E+000	-6.16000E-001	-2.69755E-003	12	...........	-327.56
	624	31.25	-6.22908E-001	-4.10449E-001	0.00000E+000	-6.24000E-001	-2.70122E-003	12	...........	-327.56
	632	31.65	-6.30861E-001	-4.31057E-001	0.00000E+000	-6.32000E-001	-2.69922E-003	12	...........	-327.56
	640	32.05	-6.38848E-001	-4.52482E-001	0.00000E+000	-6.40000E-001	-2.69455E-003	12	...........	-327.56
	648	32.45	-6.46851E-001	-4.74780E-001	0.00000E+000	-6.48000E-001	-2.69355E-003	12	...........	-327.56
	656	32.85	-6.54812E-001	-4.97549E-001	0.00000E+000	-6.56000E-001	-2.70555E-003	12	...........	-327.56
	664	33.25	-6.62799E-001	-5.19503E-001	0.00000E+000	-6.64000E-001	-2.69655E-003	12	...........	-327.56
	672	33.65	-6.70798E-001	-5.39847E-001	0.00000E+000	-6.72000E-001	-2.69922E-003	12	...........	-327.56
	680	34.05	-6.78753E-001	-5.58213E-001	0.00000E+000	-6.80000E-001	-2.69555E-003	12	...........	-327.56
	688	34.45	-6.86740E-001	-5.76722E-001	0.00000E+000	-6.88000E-001	-2.69555E-003	12	...........	-327.56
	696	34.85	-6.94750E-001	-5.97448E-001	0.00000E+000	-6.96000E-001	-2.69955E-003	12	...........	-327.56
	704	35.25	-7.02743E-001	-6.19926E-001	0.00000E+000	-7.04000E-001	-2.70089E-003	12	...........	-327.56
	712	35.65	-7.10683E-001	-6.43672E-001	0.00000E+000	-7.12000E-001	-2.69389E-003	12	...........	-327.56
	720	36.05	-7.18623E-001	-6.67361E-001	0.00000E+000	-7.20000E-001	-2.68955E-003	12	...........	-327.56
	728	36.45	-7.26628E-001	-6.90108E-001	0.00000E+000	-7.28000E-001	-2.69755E-003	12	...........	-327.56
	736	36.85	-7.34577E-001	-7.11373E-001	0.00000E+000	-7.36000E-001	-2.69589E-003	12	...........	-327.56
	744	37.25	-7.42574E-001	-7.31328E-001	0.00000E+000	-7.44000E-001	-2.69322E-003	12	...........	-327.56
	752	37.65	-7.50583E-001	-7.49587E-001	0.00000E+000	-7.52000E-001	-2.69222E-003	12	...........	-327.56
	760	38.05	-7.58532E-001	-7.65726E-001	0.00000E+000	-7.60000E-001	-2.70122E-003	12	...........	-327.56
	768	38.45	-7.66516E-001	-7.79444E-001	0.00000E+000	-7.68000E-001	-2.68255E-003	12	...........	-327.56
	776	38.85	-7.74527E-001	-7.91570E-001	0.00000E+000	-7.76000E-001	-2.70389E-003	12	...........	-327.56
	784	39.25	-7.82494E-001	-8.01950E-001	0.00000E+000	-7.84000E-001	-2.70189E-003	12	...........	-327.56
	792	39.65	-7.90472E-001	-8.11127E-001	0.00000E+000	-7.92000E-001	-2.70255E-003	12	...........	-327.56
	800	40.05	-7.98474E-001	-8.19528E-001	0.00000E+000	-8.00000E-001	-2.69322E-003	12	...........	-327.56
	808	40.45	-8.06463E-001	-8.27109E-001	0.00000E+000	-8.08000E-001	-2.68822E-003	12	...........	-327.56
	816	40.85	-8.14460E-001	-8.34558E-001	0.00000E+000	-8.16000E-001	-2.69689E-003	12	...........	-327.56
	824	41.25	-8.22438E-001	-8.41799E-001	0.00000E+000	-8.24000E-001	-2.69755E-003	12	...........	-327.56
	832	41.65	-8.30492E-001	-8.50357E-001	0.00000E+000	-8.32000E-001	-2.69889E-003	12	...........	-327.56
	840	42.05	-8.38388E-001	-8.60354E-001	0.00000E+000	-8.40000E-001	-2.69289E-003	12	...........	-327.56
	848	42.45	-8.46395E-001	-8.70853E-001	0.00000E+000	-8.48000E-001	-2.68989E-003	12	...........	-327.56
	856	42.85	-8.54435E-001	-8.83433E-001	0.00000E+000	-8.56000E-001	-2.69689E-003	12	...........	-327.56
	864	43.25	-8.62351E-001	-8.95764E-001	0.00000E+000	-8.64000E-001	-2.68922E-003	12	...........	-327.56
	872	43.65	-8.70336E-001	-9.09449E-001	0.00000E+000	-8.72000E-001	-2.68655E-003	12	...........	-327.56
	880	44.05	-8.78350E-001	-9.23322E-001	0.00000E+000	-8.80000E-001	-2.70622E-003	12	...........	-327.56
	888	44.45	-8.86277E-001	-9.37154E-001	0.00000E+000	-8.88000E-001	-2.68922E-003	12	...........	-327.56
	896	44.85	-8.94263E-001	-9.50615E-001	0.00000E+000	-8.96000E-001	-2.69289E-003	12	...........	-327.56
	904	45.25	-9.02281E-001	-9.66007E-001	0.00000E+000	-9.04000E-001	-2.69289E-003	12	...........	-327.56
	912	45.65	-9.10238E-001	-9.81645E-001	0.00000E+000	-9.12000E-001	-2.69189E-003	12	...........	-327.56
	920	46.05	-9.18227E-001	-9.97024E-001	0.00000E+000	-9.20000E-001	-2.69122E-003	12	...........	-327.56
	928	46.45	-9.26186E-001	-1.01248E+000	0.00000E+000	-9.28000E-001	-2.69322E-003	12	...........	-327.56
	936	46.85	-9.34230E-001	-1.02831E+000	0.00000E+000	-9.36000E-001	-2.69322E-003	12	...........	-327.56
	944	47.25	-9.42124E-001	-1.04426E+000	0.00000E+000	-9.44000E-001	-2.69755E-003	12	...........	-327.56
	952	47.65	-9.50139E-001	-1.06091E+000	0.00000E+000	-9.52000E-001	-2.69055E-003	12	...........	-327.56
	960	48.05	-9.58143E-001	-1.07821E+000	0.00000E+000	-9.60000E-001	-2.69522E-003	12	...........	-327.56
	968	48.45	-9.66089E-001	-1.09605E+000	0.00000E+000	-9.68000E-001	-2.68889E-003	12	...........	-327.56
	976	48.85	-9.74075E-001	-1.11487E+000	0.00000E+000	-9.76000E-001	-2.69222E-003	12	...........	-327.56
	984	49.25	-9.82069E-001	-1.13244E+000	0.00000E+000	-9.84000E-001	-2.69455E-003	12	...........	-327.56
	992	49.65	-9.90023E-001	-1.15085E+000	0.00000E+000	-9.92000E-001	-2.69522E-003	12	...........	-327.56
	1000	50.05	-9.98012E-001	-1.16937E+000	0.00000E+000	-1.00000E+000	-2.69589E-003	12	...........	-327.56
	1008	50.45	-9.90030E-001	-1.14663E+000	0.00000E+000	-9.92000E-001	-2.68489E-003	12	...........	-327.56
	1016	50.85	-9.82077E-001	-1.12466E+000	0.00000E+000	-9.84000E-001	-2.68555E-003	12	...........	-327.56
	1024	51.25	-9.74080E-001	-1.10223E+000	0.00000E+000	-9.76000E-001	-2.69255E-003	12	...........	-327.56
	1032	51.65	-9.66091E-001	-1.08040E+000	0.00000E+000	-9.68000E-001	-2.69755E-003	12	...........	-327.56
	1040	52.05	-9.58151E-001	-1.05874E+000	0.00000E+000	-9.60000E-001	-2.69189E-003	12	...........	-327.56
	1048	52.45	-9.50150E-001	-1.03758E+000	0.00000E+000	-9.52000E-001	-2.68855E-003	12	...........	-327.56
	1056	52.85	-9.42156E-001	-1.01539E+000	0.00000E+000	-9.44000E-001	-2.69889E-003	12	...........	-327.56
	1064	53.25	-9.34258E-001	-9.93435E-001	0.00000E+000	-9.36000E-001	-2.68722E-003	12	...........	-327.56
	1072	53.65	-9.26217E-001	-9.71998E-001	0.00000E+000	-9.28000E-001	-2.68789E-003	12	...........	-327.56
	1080	54.05	-9.18272E-001	-9.50796E-001	0.00000E+000	-9.20000E-001	-2.70055E-003	12	...........	-327.56
	1088	54.45	-9.10280E-001	-9.29469E-001	0.00000E+000	-9.12000E-001	-2.70355E-003	12	...........	-327.56
	1096	54.85	-9.02336E-001	-9.08330E-001	0.00000E+000	-9.04000E-001	-2.69022E-003	12	...........	-327.56
	1104	55.25	-8.94324E-001	-8.86987E-001	0.00000E+000	-8.96000E-001	-2.68389E-003	12	...........	-327.56
	1112	55.65	-8.86333E-001	-8.65270E-001	0.00000E+000	-8.88000E-001	-2.69155E-003	12	...........	-327.56
	1120	56.05	-8.78420E-001	-8.44493E-001	0.00000E+000	-8.80000E-001	-2.69789E-003	12	...........	-327.56
	1128	56.45	-8.70428E-001	-8.23307E-001	0.00000E+000	-8.72000E-001	-2.68555E-003	12	...........	-327.56
	1136	56.85	-8.62417E-001	-8.02534E-001	0.00000E+000	-8.64000E-001	-2.69122E-003	12	...........	-327.56
	1144	57.25	-8.54491E-001	-7.82076E-001	0.00000E+000	-8.56000E-001	-2.69089E-003	12	...........	-327.56
	1152	57.65	-8.46486E-001	-7.61695E-001	0.00000E+000	-8.48000E-001	-2.68422E-003	12	...........	-327.56
	1160	58.05	-8.38477E-001	-7.41596E-001	0.00000E+000	-8.40000E-001	-2.68589E-003	12	...........	-327.56
	1168	58.45	-8.30555E-001	-7.21815E-001	0.00000E+000	-8.32000E-001	-2.68622E-003	12	...........	-327.56
	1176	58.85	-8.22538E-001	-7.02266E-001	0.00000E+000	-8.24000E-001	-2.69655E-003	12	...........	-327.56
	1184	59.25	-8.14565E-001	-6.82217E-001	0.00000E+000	-8.16000E-001	-2.69289E-003	12	...........	-327.56
	1192	59.65	-8.06591E-001	-6.62766E-001	0.00000E+000	-8.08000E-001	-2.69022E-003	12	...........	-327.56
	1200	60.05	-7.98611E-001	-6.43485E-001	0.00000E+000	-8.00000E-001	-2.69289E-003	12	...........	-327.56
	1208	60.45	-7.90623E-001	-6.24478E-001	0.00000E+000	-7.92000E-001	-2.69122E-003	12	...........	-327.56
	1216	60.85	-7.82631E-001	-6.05506E-001	0.00000E+000	-7.84000E-001	-2.68555E-003	12	...........	-327.56
	1224	61.25	-7.74679E-001	-5.86508E-001	0.00000E+000	-7.76000E-001	-2.69189E-003	12	...........	-327.56
	1232	61.65	-7.66685E-001	-5.67627E-001	0.00000E+000	-7.68000E-001	-2.69755E-003	12	...........	-327.56
	1240	62.05	-7.58679E-001	-5.49184E-001	0.00000E+000	-7.60000E-001	-2.69589E-003	12	...........	-327.56
	1248	62.45	-7.50738E-001	-5.31071E-001	0.00000E+000	-7.52000E-001	-2.69522E-003	12	...........	-327.56
	1256	62.85	-7.42750E-001	-5.12556E-001	0.00000E+000	-7.44000E-001	-2.69789E-003	12	...........	-327.56
	1264	63.25	-7.34730E-001	-4.94229E-001	0.00000E+000	-7.36000E-001	-2.69589E-003	12	...........	-327.56
	1272	63.65	-7.26789E-001	-4.75956E-001	0.00000E+000	-7.28000E-001	-2.68555E-003	12	...........	-327.56
	1280	64.05	-7.18776E-001	-4.58002E-001	0.00000E+000	-7.20000E-001	-2.68922E-003	12	...........	-327.56
	1288	64.45	-7.10816E-001	-4.39672E-001	0.00000E+000	-7.12000E-001	-2.68655E-003	12	...........	-327.56
	1296	64.85	-7.02881E-001	-4.21926E-001	0.00000E+000	-7.04000E-001	-2.69455E-003	12	...........	-327.56
	1304	65.25	-6.94876E-001	-4.04137E-001	0.00000E+000	-6.96000E-001	-2.69222E-003	12	...........	-327.56
	1312	65.65	-6.86865E-001	-3.86744E-001	0.00000E+000	-6.88000E-001	-2.69355E-003	12	...........	-327.56
	1320	66.05	-6.78876E-001	-3.69225E-001	0.00000E+000	-6.80000E-001	-2.68789E-003	12	...........	-327.56
	1328	66.45	-6.70925E-001	-3.51982E-001	0.00000E+000	-6.72000E-001	-2.70822E-003	12	...........	-327.56
	1336	66.85	-6.62918E-001	-3.34997E-001	0.00000E+000	-6.64000E-001	-2.68689E-003	12	...........	-327.56
	1344	67.25	-6.54929E-001	-3.17916E-001	0.00000E+000	-6.56000E-001	-2.69222E-003	12	...........	-327.56
	1352	67.65	-6.46986E-001	-3.00843E-001	0.00000E+000	-6.48000E-001	-2.68455E-003	12	...........	-327.56
	1360	68.05	-6.38969E-001	-2.83897E-001	0.00000E+000	-6.40000E-001	-2.68455E-003	12	...........	-327.56
	1368	68.45	-6.30967E-001	-2.67126E-001	0.00000E+000	-6.32000E-001	-2.69489E-003	12	...........	-327.56
	1376	68.85	-6.23037E-001	-2.50420E-001	0.00000E+000	-6.24000E-001	-2.68655E-003	12	...........	-327.56
	1384	69.25	-6.14803E-001	-2.32838E-001	0.00000E+000	-6.16000E-001	-2.67489E-003	11	...........	-327.56
	1392	69.65	-6.06839E-001	-2.16608E-001	0.00000E+000	-6.08000E-001	-2.68922E-003	11	...........	-327.56
	1400	70.05	-5.98919E-001	-2.00399E-001	0.00000E+000	-6.00000E-001	-2.68122E-003	11	...........	-327.56
	1408	70.45	-5.90912E-001	-1.84384E-001	0.00000E+000	-5.92000E-001	-2.69022E-003	11	...........	-327.56
	1416	70.85	-5.82886E-001	-1.68577E-001	0.00000E+000	-5.84000E-001	-2.68989E-003	11	...........	-327.56
	1424	71.25	-5.75019E-001	-1.52773E-001	0.00000E+000	-5.76000E-001	-2.69355E-003	11	...........	-327.56
	1432	71.65	-5.66969E-001	-1.37172E-001	0.00000E+000	-5.68000E-001	-2.68522E-003	11	...........	-327.56
	1440	72.05	-5.58974E-001	-1.21808E-001	0.00000E+000	-5.60000E-001	-2.69289E-003	11	...........	-327.56
	1448	72.45	-5.50964E-001	-1.06613E-001	0.00000E+000	-5.52000E-001	-2.68222E-003	11	...........	-327.56
	1456	72.85	-5.42992E-001	-9.16198E-002	0.00000E+000	-5.44000E-001	-2.69289E-003	11	...........	-327.56
	1464	73.25	-5.34929E-001	-7.69130E-002	0.00000E+000	-5.36000E-001	-2.70122E-003	11	...........	-327.56
	1472	73.65	-5.26854E-001	-6.23978E-002	0.00000E+000	-5.28000E-001	-2.69255E-003	11	...........	-327.56
	1480	74.05	-5.18840E-001	-4.80718E-002	0.00000E+000	-5.20000E-001	-2.68289E-003	11	...........	-327.56
	1488	74.45	-5.10867E-001	-3.41281E-002	0.00000E+000	-5.12000E-001	-2.69389E-003	11	...........	-327.56
	1496	74.85	-5.02892E-001	-1.98782E-002	0.00000E+000	-5.04000E-001	-2.67989E-003	10	...........	-327.56
	1504	75.25	-4.95099E-001	-6.78067E-003	0.00000E+000	-4.96000E-001	-2.69122E-003	10	...........	-327.56
	1512	75.65	-4.87232E-001	6.33230E-003	0.00000E+000	-4.88000E-001	-2.68422E-003	10	...........	-327.56
	1520	76.05	-4.79392E-001	1.90816E-002	0.00000E+000	-4.80000E-001	-2.68122E-003	10	...........	-327.56
	1528	76.45	-4.71023E-001	3.25858E-002	0.00000E+000	-4.72000E-001	-2.68989E-003	11	...........	-327.56
	1536	76.85	-4.63030E-001	4.55570E-002	0.00000E+000	-4.64000E-001	-2.68489E-003	11	...........	-327.56
	1544	77.25	-4.55089E-001	5.87724E-002	0.00000E+000	-4.56000E-001	-2.69122E-003	11	...........	-327.56
	1552	77.65	-4.47270E-001	7.23409E-002	0.00000E+000	-4.48000E-001	-2.68755E-003	11	...........	-327.56
	1560	78.05	-4.39314E-001	8.67875E-002	0.00000E+000	-4.40000E-001	-2.69055E-003	11	...........	-327.56
	1568	78.45	-4.31387E-001	1.02339E-001	0.00000E+000	-4.32000E-001	-2.67789E-003	11	...........	-327.56
	1576	78.85	-4.23448E-001	1.19216E-001	0.00000E+000	-4.24000E-001	-2.68689E-003	11	...........	-327.56
	1584	79.25	-4.15549E-001	1.37261E-001	0.00000E+000	-4.16000E-001	-2.69022E-003	11	...........	-327.56
	1592	79.65	-4.07565E-001	1.56211E-001	0.00000E+000	-4.08000E-001	-2.69455E-003	11	...........	-327.56
	1600	80.05	-3.99625E-001	1.75880E-001	0.00000E+000	-4.00000E-001	-2.68289E-003	11	...........	-327.56
	1608	80.45	-3.91715E-001	1.96304E-001	0.00000E+000	-3.92000E-001	-2.67789E-003	11	...........	-327.56
	1616	80.85	-3.83734E-001	2.17384E-001	0.00000E+000	-3.84000E-001	-2.69755E-003	11	...........	-327.56
	1624	81.25	-3.75753E-001	2.39157E-001	0.00000E+000	-3.76000E-001	-2.68355E-003	11	...........	-327.56
	1632	81.65	-3.67841E-001	2.61688E-001	0.00000E+000	-3.68000E-001	-2.69155E-003	11	...........	-327.56
	1640	82.05	-3.59540E-001	2.86027E-001	0.00000E+000	-3.60000E-001	-2.68689E-003	12	...........	-327.56
	1648	82.45	-3.51545E-001	3.10173E-001	0.00000E+000	-3.52000E-001	-2.69322E-003	12	...........	-327.56
	1656	82.85	-3.43615E-001	3.35104E-001	0.00000E+000	-3.44000E-001	-2.70722E-003	12	...........	-327.56
	1664	83.25	-3.35620E-001	3.60722E-001	0.00000E+000	-3.36000E-001	-2.69489E-003	12	...........	-327.56
	1672	83.65	-3.27606E-001	3.86824E-001	0.00000E+000	-3.28000E-001	-2.69722E-003	12	...........	-327.56
	1680	84.05	-3.19713E-001	4.13166E-001	0.00000E+000	-3.20000E-001	-2.68922E-003	12	...........	-327.56
	1688	84.45	-3.11684E-001	4.39434E-001	0.00000E+000	-3.12000E-001	-2.68789E-003	12	...........	-327.56
	1696	84.85	-3.03740E-001	4.65560E-001	0.00000E+000	-3.04000E-001	-2.68855E-003	12	...........	-327.56
	1704	85.25	-2.95766E-001	4.91387E-001	0.00000E+000	-2.96000E-001	-2.68722E-003	12	...........	-327.56
	1712	85.65	-2.87810E-001	5.16937E-001	0.00000E+000	-2.88000E-001	-2.68789E-003	12	...........	-327.56
	1720	86.05	-2.79812E-001	5.42178E-001	0.00000E+000	-2.80000E-001	-2.68889E-003	12	...........	-327.56
	1728	86.45	-2.71835E-001	5.67182E-001	0.00000E+000	-2.72000E-001	-2.69855E-003	12	...........	-327.56
	1736	86.85	-2.63893E-001	5.91857E-001	0.00000E+000	-2.64000E-001	-2.68689E-003	12	...........	-327.56
	1744	87.25	-2.55917E-001	6.16162E-001	0.00000E+000	-2.56000E-001	-2.68089E-003	12	...........	-327.56
	1752	87.65	-2.47908E-001	6.40110E-001	0.00000E+000	-2.48000E-001	-2.68489E-003	12	...........	-327.56
	1760	88.05	-2.39914E-001	6.63648E-001	0.00000E+000	-2.40000E-001	-2.69189E-003	12	...........	-327.56
	1768	88.45	-2.31935E-001	6.86819E-001	0.00000E+000	-2.32000E-001	-2.70389E-003	12	...........	-327.56
	1776	88.85	-2.23953E-001	7.09287E-001	0.00000E+000	-2.24000E-001	-2.67955E-003	12	...........	-327.56
	1784	89.25	-2.15992E-001	7.30944E-001	0.00000E+000	-2.16000E-001	-2.68255E-003	12	...........	-327.56
	1792	89.65	-2.08009E-001	7.51429E-001	0.00000E+000	-2.08000E-001	-2.68889E-003	12	...........	-327.56
	1800	90.05	-2.00037E-001	7.70149E-001	0.00000E+000	-2.00000E-001	-2.69555E-003	12	...........	-327.56
	1808	90.45	-1.92053E-001	7.86272E-001	0.00000E+000	-1.92000E-001	-2.68689E-003	12	...........	-327.56
	1816	90.85	-1.84072E-001	7.99626E-001	0.00000E+000	-1.84000E-001	-2.68922E-003	12	...........	-327.56
	1824	91.25	-1.76082E-001	8.08258E-001	0.00000E+000	-1.76000E-001	-2.68289E-003	12	...........	-327.56
	1832	91.65	-1.68092E-001	8.09334E-001	0.00000E+000	-1.68000E-001	-2.68989E-003	12	...........	-327.56
	1840	92.05	-1.60091E-001	7.98601E-001	0.00000E+000	-1.60000E-001	-2.68789E-003	12	...........	-327.56
	1848	92.45	-1.52084E-001	7.63736E-001	0.00000E+000	-1.52000E-001	-2.69222E-003	12	...........	-327.56
	1856	92.85	-1.44019E-001	6.85930E-001	0.00000E+000	-1.44000E-001	-2.68355E-003	12	...........	-327.56
	1864	93.25	-1.35902E-001	5.24308E-001	0.00000E+000	-1.36000E-001	-2.70122E-003	12	...........	-327.56
	1872	93.65	-1.27797E-001	3.78025E-001	0.00000E+000	-1.28000E-001	-2.68655E-003	12	...........	-327.56
	1880	94.05	-1.19756E-001	3.21264E-001	0.00000E+000	-1.20000E-001	-2.68489E-003	12	...........	-327.56
	1888	94.45	-1.11745E-001	2.99007E-001	0.00000E+000	-1.12000E-001	-2.68789E-003	12	...........	-327.56
	1896	94.85	-1.03736E-001	2.87815E-001	0.00000E+000	-1.04000E-001	-2.68389E-003	12	...........	-327.56
	1904	95.25	-9.57463E-002	2.81191E-001	0.00000E+000	-9.60000E-002	-2.68589E-003	12	...........	-327.56
	1912	95.65	-8.77410E-002	2.76660E-001	0.00000E+000	-8.80000E-002	-2.67989E-003	12	...........	-327.56
	1920	96.05	-7.97519E-002	2.72902E-001	0.00000E+000	-8.00000E-002	-2.68822E-003	12	...........	-327.56
	1928	96.45	-7.17598E-002	2.70108E-001	0.00000E+000	-7.20000E-002	-2.68655E-003	12	...........	-327.56
	1936	96.85	-6.37694E-002	2.68464E-001	0.00000E+000	-6.40000E-002	-2.68755E-003	12	...........	-327.56
	1944	97.25	-5.57781E-002	2.67486E-001	0.00000E+000	-5.60000E-002	-2.69922E-003	12	...........	-327.56
	1952	97.65	-4.77806E-002	2.66490E-001	0.00000E+000	-4.80000E-002	-2.67655E-003	12	...........	-327.56
	1960	98.05	-3.97850E-002	2.65021E-001	0.00000E+000	-4.00000E-002	-2.68789E-003	12	...........	-327.56
	1968	98.45	-3.17961E-002	2.63480E-001	0.00000E+000	-3.20000E-002	-2.67822E-003	12	...........	-327.56
	1976	98.85	-2.38157E-002	2.62799E-001	0.00000E+000	-2.40000E-002	-2.69689E-003	12	...........	-327.56
	1984	99.25	-1.57999E-002	2.63349E-001	0.00000E+000	-1.60000E-002	-2.68589E-003	12	...........	-327.56
	1992	99.65	-7.79723E-003	2.64448E-001	0.00000E+000	-7.99996E-003	-2.68822E-003	12	...........	-327.56
	2000	100.05	1.98799E-004	2.65214E-001	0.00000E+000	2.98023E-008	-2.68622E-003	12	...........	-327.56
	2008	100.45	8.18177E-003	2.64992E-001	0.00000E+000	8.00005E-003	-2.68555E-003	12	...........	-327.56
	2016	100.85	1.61713E-002	2.63449E-001	0.00000E+000	1.60000E-002	-2.69322E-003	12	...........	-327.56
	2024	101.25	2.41684E-002	2.59806E-001	0.00000E+000	2.40000E-002	-2.69255E-003	12	...........	-327.56
	2032	101.65	3.21306E-002	2.55271E-001	0.00000E+000	3.20000E-002	-2.69622E-003	12	...........	-327.56
	2040	102.05	4.01277E-002	2.51701E-001	0.00000E+000	4.00000E-002	-2.68889E-003	12	...........	-327.56
	2048	102.45	4.81257E-002	2.49475E-001	0.00000E+000	4.80000E-002	-2.68089E-003	12	...........	-327.56
	2056	102.85	5.61188E-002	2.48402E-001	0.00000E+000	5.60000E-002	-2.70055E-003	12	...........	-327.56
	2064	103.25	6.41123E-002	2.48510E-001	0.00000E+000	6.40000E-002	-2.69122E-003	12	...........	-327.56
	2072	103.65	7.21036E-002	2.50779E-001	0.00000E+000	7.20000E-002	-2.68189E-003	12	...........	-327.56
	2080	104.05	8.00871E-002	2.54988E-001	0.00000E+000	8.00000E-002	-2.69855E-003	12	...........	-327.56
	2088	104.45	8.80704E-002	2.60272E-001	0.00000E+000	8.80000E-002	-2.68789E-003	12	...........	-327.56
	2096	104.85	9.60662E-002	2.66893E-001	0.00000E+000	9.60000E-002	-2.69255E-003	12	...........	-327.56
	2104	105.25	1.04049E-001	2.74361E-001	0.00000E+000	1.04000E-001	-2.69855E-003	12	...........	-327.56
	2112	105.65	1.12032E-001	2.82516E-001	0.00000E+000	1.12000E-001	-2.67689E-003	12	...........	-327.56
	2120	106.05	1.20028E-001	2.91798E-001	0.00000E+000	1.20000E-001	-2.68422E-003	12	...........	-327.56
	2128	106.45	1.28023E-001	3.01244E-001	0.00000E+000	1.28000E-001	-2.68389E-003	12	...........	-327.56
	2136	106.85	1.35985E-001	3.12342E-001	0.00000E+000	1.36000E-001	-2.68522E-003	12	...........	-327.56
	2144	107.25	1.43965E-001	3.24253E-001	0.00000E+000	1.44000E-001	-2.68689E-003	12	...........	-327.56
	2152	107.65	1.51957E-001	3.36567E-001	0.00000E+000	1.52000E-001	-2.69789E-003	12	...........	-327.56
	2160	108.05	1.59940E-001	3.49144E-001	0.00000E+000	1.60000E-001	-2.67955E-003	12	...........	-327.56
	2168	108.45	1.67905E-001	3.63217E-001	0.00000E+000	1.68000E-001	-2.67955E-003	12	...........	-327.56
	2176	108.85	1.75894E-001	3.78366E-001	0.00000E+000	1.76000E-001	-2.68922E-003	12	...........	-327.56
	2184	109.25	1.83879E-001	3.94866E-001	0.00000E+000	1.84000E-001	-2.67722E-003	12	...........	-327.56
	2192	109.65	1.91840E-001	4.12919E-001	0.00000E+000	1.92000E-001	-2.69189E-003	12	...........	-327.56
	2200	110.05	1.99826E-001	4.32281E-001	0.00000E+000	2.00000E-001	-2.68622E-003	12	...........	-327.56
	2208	110.45	2.07810E-001	4.52922E-001	0.00000E+000	2.08000E-001	-2.68555E-003	12	...........	-327.56
	2216	110.85	2.15782E-001	4.74594E-001	0.00000E+000	2.16000E-001	-2.68689E-003	12	...........	-327.56
	2224	111.25	2.23759E-001	4.95550E-001	0.00000E+000	2.24000E-001	-2.69455E-003	12	...........	-327.56
	2232	111.65	2.31728E-001	5.16368E-001	0.00000E+000	2.32000E-001	-2.67489E-003	12	...........	-327.56
	2240	112.05	2.39696E-001	5.35925E-001	0.00000E+000	2.40000E-001	-2.67889E-003	12	...........	-327.56
	2248	112.45	2.47676E-001	5.55753E-001	0.00000E+000	2.48000E-001	-2.68855E-003	12	...........	-327.56
	2256	112.85	2.55652E-001	5.75207E-001	0.00000E+000	2.56000E-001	-2.69455E-003	12	...........	-327.56
	2264	113.25	2.63632E-001	5.96934E-001	0.00000E+000	2.64000E-001	-2.69555E-003	12	...........	-327.56
	2272	113.65	2.71467E-001	6.17747E-001	0.00000E+000	2.72000E-001	-2.68355E-003	12	...........	-327.56
	2280	114.05	2.79471E-001	6.35386E-001	0.00000E+000	2.80000E-001	-2.69055E-003	12	...........	-327.56
	2288	114.45	2.87498E-001	6.54070E-001	0.00000E+000	2.88000E-001	-2.68355E-003	12	...........	-327.56
	2296	114.85	2.95386E-001	6.75646E-001	0.00000E+000	2.96000E-001	-2.68355E-003	12	...........	-327.56
	2304	115.25	3.03434E-001	6.93010E-001	0.00000E+000	3.04000E-001	-2.68155E-003	12	...........	-327.56
	2312	115.65	3.11396E-001	7.09470E-001	0.00000E+000	3.12000E-001	-2.68022E-003	12	...........	-327.56
	2320	116.05	3.19367E-001	7.31735E-001	0.00000E+000	3.20000E-001	-2.68389E-003	12	...........	-327.56
	2328	116.45	3.27311E-001	7.51154E-001	0.00000E+000	3.28000E-001	-2.68355E-003	12	...........	-327.56
	2336	116.85	3.35321E-001	7.65075E-001	0.00000E+000	3.36000E-001	-2.68089E-003	12	...........	-327.56
	2344	117.25	3.43327E-001	7.79662E-001	0.00000E+000	3.44000E-001	-2.68855E-003	12	...........	-327.56
	2352	117.65	3.51243E-001	8.01914E-001	0.00000E+000	3.52000E-001	-2.68322E-003	12	...........	-327.56
	2360	118.05	3.59229E-001	8.18893E-001	0.00000E+000	3.60000E-001	-2.68255E-003	12	...........	-327.56
	2368	118.45	3.67242E-001	8.43145E-001	0.00000E+000	3.68000E-001	-2.67155E-003	12	...........	-327.56
	2376	118.85	3.75150E-001	8.55337E-001	0.00000E+000	3.76000E-001	-2.69289E-003	12	...........	-327.56
	2384	119.25	3.83176E-001	8.73006E-001	0.00000E+000	3.84000E-001	-2.67789E-003	12	...........	-327.56
	2392	119.65	3.91177E-001	8.89964E-001	0.00000E+000	3.92000E-001	-2.68122E-003	12	...........	-327.56
	2400	120.05	3.99089E-001	9.04188E-001	0.00000E+000	4.00000E-001	-2.68555E-003	12	...........	-327.56
	2408	120.45	4.07117E-001	9.23321E-001	0.00000E+000	4.08000E-001	-2.68122E-003	12	...........	-327.56
	2416	120.85	4.15158E-001	9.37107E-001	0.00000E+000	4.16000E-001	-2.68622E-003	12	...........	-327.56
	2424	121.25	4.23046E-001	9.49115E-001	0.00000E+000	4.24000E-001	-2.68822E-003	12	...........	-327.56
	2432	121.65	4.31098E-001	9.61259E-001	0.00000E+000	4.32000E-001	-2.68722E-003	12	...........	-327.56
	2440	122.05	4.39109E-001	9.72017E-001	0.00000E+000	4.40000E-001	-2.68389E-003	12	...........	-327.56
	2448	122.45	4.47103E-001	9.84832E-001	0.00000E+000	4.48000E-001	-2.68122E-003	12	...........	-327.56
	2456	122.85	4.55050E-001	9.84156E-001	0.00000E+000	4.56000E-001	-2.68722E-003	12	...........	-327.56
	2464	123.25	4.63058E-001	1.01144E+000	0.00000E+000	4.64000E-001	-2.68722E-003	12	...........	-327.56
	2472	123.65	4.71058E-001	1.01660E+000	0.00000E+000	4.72000E-001	-2.69222E-003	12	...........	-327.56
	2480	124.05	4.79007E-001	1.03022E+000	0.00000E+000	4.80000E-001	-2.68389E-003	12	...........	-327.56
	2488	124.45	4.87034E-001	1.02746E+000	0.00000E+000	4.88000E-001	-2.68122E-003	12	...........	-327.56
	2496	124.85	4.95020E-001	1.05122E+000	0.00000E+000	4.96000E-001	-2.70155E-003	12	...........	-327.56
	2504	125.25	5.02957E-001	1.04263E+000	0.00000E+000	5.04000E-001	-2.69755E-003	12	...........	-327.56
	2512	125.65	5.10984E-001	1.06614E+000	0.00000E+000	5.12000E-001	-2.68355E-003	12	...........	-327.56
	2520	126.05	5.18953E-001	1.07452E+000	0.00000E+000	5.20000E-001	-2.67755E-003	12	...........	-327.56
	2528	126.45	5.26901E-001	1.06688E+000	0.00000E+000	5.28000E-001	-2.68755E-003	12	...........	-327.56
	2536	126.85	5.34912E-001	1.09137E+000	0.00000E+000	5.36000E-001	-2.68355E-003	12	...........	-327.56
	2544	127.25	5.42929E-001	1.09211E+000	0.00000E+000	5.44000E-001	-2.69355E-003	12	...........	-327.56
	2552	127.65	5.50849E-001	1.09218E+000	0.00000E+000	5.52000E-001	-2.67755E-003	12	...........	-327.56
	2560	128.05	5.58891E-001	1.08094E+000	0.00000E+000	5.60000E-001	-2.68189E-003	12	...........	-327.56
	2568	128.45	5.66912E-001	1.08112E+000	0.00000E+000	5.68000E-001	-2.68022E-003	12	...........	-327.56
	2576	128.85	5.74924E-001	1.07163E+000	0.00000E+000	5.76000E-001	-2.68155E-003	12	...........	-327.56
	2584	129.25	5.82880E-001	1.06882E+000	0.00000E+000	5.84000E-001	-2.68889E-003	12	...........	-327.56
	2592	129.65	5.90908E-001	1.06943E+000	0.00000E+000	5.92000E-001	-2.67389E-003	12	...........	-327.56
	2600	130.05	5.98924E-001	1.05168E+000	0.00000E+000	6.00000E-001	-2.69455E-003	12	...........	-327.56
	2608	130.45	6.06882E-001	1.05389E+000	0.00000E+000	6.08000E-001	-2.68989E-003	12	...........	-327.56
	2616	130.85	6.14875E-001	1.04233E+000	0.00000E+000	6.16000E-001	-2.68655E-003	12	...........	-327.56
	2624	131.25	6.22913E-001	1.02517E+000	0.00000E+000	6.24000E-001	-2.68389E-003	12	...........	-327.56
	2632	131.65	6.30869E-001	1.04117E+000	0.00000E+000	6.32000E-001	-2.67889E-003	12	...........	-327.56
	2640	132.05	6.38867E-001	1.03356E+000	0.00000E+000	6.40000E-001	-2.68689E-003	12	...........	-327.56
	2648	132.45	6.46903E-001	1.02141E+000	0.00000E+000	6.48000E-001	-2.68455E-003	12	...........	-327.56
	2656	132.85	6.54855E-001	1.00138E+000	0.00000E+000	6.56000E-001	-2.68789E-003	12	...........	-327.56
	2664	133.25	6.62889E-001	1.00184E+000	0.00000E+000	6.64000E-001	-2.68422E-003	12	...........	-327.56
	2672	133.65	6.70913E-001	1.00205E+000	0.00000E+000	6.72000E-001	-2.67822E-003	12	...........	-327.56
	2680	134.05	6.78820E-001	1.00533E+000	0.00000E+000	6.80000E-001	-2.67922E-003	12	...........	-327.56
	2688	134.45	6.86872E-001	9.94506E-001	0.00000E+000	6.88000E-001	-2.69555E-003	12	...........	-327.56
	2696	134.85	6.94904E-001	9.81343E-001	0.00000E+000	6.96000E-001	-2.68622E-003	12	...........	-327.56
	2704	135.25	7.02912E-001	9.78882E-001	0.00000E+000	7.04000E-001	-2.68689E-003	12	...........	-327.56
	2712	135.65	7.10883E-001	9.63105E-001	0.00000E+000	7.12000E-001	-2.68289E-003	12	...........	-327.56
	2720	136.05	7.18871E-001	9.50787E-001	0.00000E+000	7.20000E-001	-2.68189E-003	12	...........	-327.56
	2728	136.45	7.26890E-001	9.30753E-001	0.00000E+000	7.28000E-001	-2.68089E-003	12	...........	-327.56
	2736	136.85	7.34842E-001	9.34815E-001	0.00000E+000	7.36000E-001	-2.67855E-003	12	...........	-327.56
	2744	137.25	7.42878E-001	9.17298E-001	0.00000E+000	7.44000E-001	-2.68522E-003	12	...........	-327.56
	2752	137.65	7.50887E-001	9.14985E-001	0.00000E+000	7.52000E-001	-2.67489E-003	12	...........	-327.56
	2760	138.05	7.58836E-001	9.17877E-001	0.00000E+000	7.60000E-001	-2.68322E-003	12	...........	-327.56
	2768	138.45	7.66869E-001	8.98324E-001	0.00000E+000	7.68000E-001	-2.68589E-003	12	...........	-327.56
	2776	138.85	7.74888E-001	8.89316E-001	0.00000E+000	7.76000E-001	-2.68355E-003	12	...........	-327.56
	2784	139.25	7.82833E-001	8.76273E-001	0.00000E+000	7.84000E-001	-2.68155E-003	12	...........	-327.56
	2792	139.65	7.90872E-001	8.62176E-001	0.00000E+000	7.92000E-001	-2.66889E-003	12	...........	-327.56
	2800	140.05	7.98906E-001	8.54380E-001	0.00000E+000	8.00000E-001	-2.67889E-003	12	...........	-327.56
	2808	140.45	8.06849E-001	8.41425E-001	0.00000E+000	8.08000E-001	-2.68022E-003	12	...........	-327.56
	2816	140.85	8.14891E-001	8.27941E-001	0.00000E+000	8.16000E-001	-2.68122E-003	12	...........	-327.56
	2824	141.25	8.22902E-001	8.00615E-001	0.00000E+000	8.24000E-001	-2.69389E-003	12	...........	-327.56
	2832	141.65	8.30910E-001	7.81807E-001	0.00000E+000	8.32000E-001	-2.69055E-003	12	...........	-327.56
	2840	142.05	8.38894E-001	7.66197E-001	0.00000E+000	8.40000E-001	-2.67955E-003	12	...........	-327.56
	2848	142.45	8.46957E-001	7.49066E-001	0.00000E+000	8.48000E-001	-2.68555E-003	12	...........	-327.56
	2856	142.85	8.54946E-001	7.34795E-001	0.00000E+000	8.56000E-001	-2.68855E-003	12	...........	-327.56
	2864	143.25	8.62917E-001	7.17433E-001	0.00000E+000	8.64000E-001	-2.67789E-003	12	...........	-327.56
	2872	143.65	8.70954E-001	6.99596E-001	0.00000E+000	8.72000E-001	-2.69122E-003	12	...........	-327.56
	2880	144.05	8.78975E-001	6.70684E-001	0.00000E+000	8.80000E-001	-2.68722E-003	12	...........	-327.56
	2888	144.45	8.86945E-001	6.42570E-001	0.00000E+000	8.88000E-001	-2.68922E-003	12	...........	-327.56
	2896	144.85	8.94983E-001	6.10846E-001	0.00000E+000	8.96000E-001	-2.67622E-003	12	...........	-327.56
[...]
	12197	609.9	-6.01669E-001	-4.01456E-002	0.00000E+000	-6.03000E-001	-2.67455E-003	11	...........	-327.56
	12209	610.5	-5.89840E-001	-1.38241E-002	0.00000E+000	-5.91000E-001	-2.68022E-003	10	...........	-327.56
	12221	611.1	-5.78098E-001	9.38846E-003	0.00000E+000	-5.79000E-001	-2.68422E-003	10	...........	-327.56
	12233	611.7	-5.65817E-001	3.03993E-002	0.00000E+000	-5.67000E-001	-2.66989E-003	11	...........	-327.56
	12245	612.3	-5.53871E-001	4.91920E-002	0.00000E+000	-5.55000E-001	-2.67589E-003	11	...........	-327.56
	12257	612.9	-5.42085E-001	6.68866E-002	0.00000E+000	-5.43000E-001	-2.68389E-003	11	...........	-327.56
	12269	613.5	-5.30154E-001	8.35031E-002	0.00000E+000	-5.31000E-001	-2.68489E-003	11	...........	-327.56
	12281	614.1	-5.18269E-001	9.87898E-002	0.00000E+000	-5.19000E-001	-2.67822E-003	11	...........	-327.56
	12293	614.7	-5.06364E-001	1.14886E-001	0.00000E+000	-5.07000E-001	-2.67689E-003	11	...........	-327.56
	12305	615.3	-4.94487E-001	1.29980E-001	0.00000E+000	-4.95000E-001	-2.69089E-003	11	...........	-327.56
	12317	615.9	-4.82477E-001	1.45997E-001	0.00000E+000	-4.83000E-001	-2.67989E-003	11	...........	-327.56
	12329	616.5	-4.70598E-001	1.62359E-001	0.00000E+000	-4.71000E-001	-2.66889E-003	11	...........	-327.56
	12341	617.1	-4.58588E-001	1.79458E-001	0.00000E+000	-4.59000E-001	-2.68955E-003	11	...........	-327.56
	12353	617.7	-4.46699E-001	1.97461E-001	0.00000E+000	-4.47000E-001	-2.66989E-003	11	...........	-327.56
	12365	618.3	-4.34706E-001	2.16084E-001	0.00000E+000	-4.35000E-001	-2.68122E-003	11	...........	-327.56
	12377	618.9	-4.22699E-001	2.35044E-001	0.00000E+000	-4.23000E-001	-2.68322E-003	11	...........	-327.56
	12389	619.5	-4.10798E-001	2.54031E-001	0.00000E+000	-4.11000E-001	-2.67789E-003	11	...........	-327.56
	12401	620.1	-3.98473E-001	2.73749E-001	0.00000E+000	-3.99000E-001	-2.67922E-003	12	...........	-327.56
	12413	620.7	-3.86517E-001	2.92392E-001	0.00000E+000	-3.87000E-001	-2.68422E-003	12	...........	-327.56
	12425	621.3	-3.74517E-001	3.10684E-001	0.00000E+000	-3.75000E-001	-2.67922E-003	12	...........	-327.56
	12437	621.9	-3.62576E-001	3.29859E-001	0.00000E+000	-3.63000E-001	-2.68555E-003	12	...........	-327.56
	12449	622.5	-3.50560E-001	3.50703E-001	0.00000E+000	-3.51000E-001	-2.67422E-003	12	...........	-327.56
	12461	623.1	-3.38637E-001	3.72784E-001	0.00000E+000	-3.39000E-001	-2.67922E-003	12	...........	-327.56
	12473	623.7	-3.26607E-001	3.92415E-001	0.00000E+000	-3.27000E-001	-2.66755E-003	12	...........	-327.56
	12485	624.3	-3.14679E-001	3.98407E-001	0.00000E+000	-3.15000E-001	-2.69122E-003	12	...........	-327.56
	12497	624.9	-3.02686E-001	3.96241E-001	0.00000E+000	-3.03000E-001	-2.68955E-003	12	...........	-327.56
	12509	625.5	-2.90740E-001	4.05659E-001	0.00000E+000	-2.91000E-001	-2.67389E-003	12	...........	-327.56
	12521	626.1	-2.78720E-001	4.16501E-001	0.00000E+000	-2.79000E-001	-2.67522E-003	12	...........	-327.56
	12533	626.7	-2.66800E-001	4.26156E-001	0.00000E+000	-2.67000E-001	-2.68089E-003	12	...........	-327.56
	12545	627.3	-2.54760E-001	4.32516E-001	0.00000E+000	-2.55000E-001	-2.67322E-003	12	...........	-327.56
	12557	627.9	-2.42834E-001	4.33947E-001	0.00000E+000	-2.43000E-001	-2.68589E-003	12	...........	-327.56
	12569	628.5	-2.30742E-001	4.30480E-001	0.00000E+000	-2.31000E-001	-2.68355E-003	12	...........	-327.56
	12581	629.1	-2.18747E-001	4.22622E-001	0.00000E+000	-2.19000E-001	-2.67655E-003	12	...........	-327.56
	12593	629.7	-2.06746E-001	4.11278E-001	0.00000E+000	-2.07000E-001	-2.67889E-003	12	...........	-327.56
	12605	630.3	-1.94735E-001	3.95261E-001	0.00000E+000	-1.95000E-001	-2.67689E-003	12	...........	-327.56
	12617	630.9	-1.82731E-001	3.73957E-001	0.00000E+000	-1.83000E-001	-2.67122E-003	12	...........	-327.56
	12629	631.5	-1.70719E-001	3.47401E-001	0.00000E+000	-1.71000E-001	-2.67955E-003	12	...........	-327.56
	12641	632.1	-1.58709E-001	3.16107E-001	0.00000E+000	-1.59000E-001	-2.68555E-003	12	...........	-327.56
	12653	632.7	-1.46689E-001	2.83446E-001	0.00000E+000	-1.47000E-001	-2.68522E-003	12	...........	-327.56
	12665	633.3	-1.34672E-001	2.54289E-001	0.00000E+000	-1.35000E-001	-2.67989E-003	12	...........	-327.56
	12677	633.9	-1.22943E-001	2.31878E-001	0.00000E+000	-1.23000E-001	-2.67922E-003	11	...........	-327.56
	12689	634.5	-1.10947E-001	2.18261E-001	0.00000E+000	-1.11000E-001	-2.67689E-003	11	...........	-327.56
	12701	635.1	-9.89193E-002	2.10644E-001	0.00000E+000	-9.90000E-002	-2.65855E-003	11	...........	-327.56
	12713	635.7	-8.69477E-002	2.06838E-001	0.00000E+000	-8.70000E-002	-2.67055E-003	11	...........	-327.56
	12725	636.3	-7.49484E-002	2.05371E-001	0.00000E+000	-7.50000E-002	-2.68422E-003	11	...........	-327.56
	12737	636.9	-6.29541E-002	2.05277E-001	0.00000E+000	-6.30000E-002	-2.68322E-003	11	...........	-327.56
	12749	637.5	-5.09843E-002	2.06026E-001	0.00000E+000	-5.10000E-002	-2.67955E-003	11	...........	-327.56
	12761	638.1	-3.89947E-002	2.07010E-001	0.00000E+000	-3.90000E-002	-2.66855E-003	11	...........	-327.56
	12773	638.7	-2.70047E-002	2.07974E-001	0.00000E+000	-2.70000E-002	-2.68355E-003	11	...........	-327.56
	12785	639.3	-1.50009E-002	2.08677E-001	0.00000E+000	-1.50000E-002	-2.68022E-003	11	...........	-327.56
	12797	639.9	-3.01702E-003	2.09132E-001	0.00000E+000	-2.99996E-003	-2.68622E-003	11	...........	-327.56
	12809	640.5	8.96406E-003	2.09292E-001	0.00000E+000	9.00003E-003	-2.68222E-003	11	...........	-327.56
	12821	641.1	2.09520E-002	2.08706E-001	0.00000E+000	2.10000E-002	-2.67122E-003	11	...........	-327.56
	12833	641.7	3.29188E-002	2.07440E-001	0.00000E+000	3.30000E-002	-2.67555E-003	11	...........	-327.56
	12845	642.3	4.49165E-002	2.04494E-001	0.00000E+000	4.50000E-002	-2.67989E-003	11	...........	-327.56
	12857	642.9	5.69021E-002	2.04969E-001	0.00000E+000	5.70000E-002	-2.67089E-003	11	...........	-327.56
	12869	643.5	6.88868E-002	2.04705E-001	0.00000E+000	6.90000E-002	-2.68822E-003	11	...........	-327.56
	12881	644.1	8.08604E-002	2.09928E-001	0.00000E+000	8.10000E-002	-2.67289E-003	11	...........	-327.56
	12893	644.7	9.28263E-002	2.19562E-001	0.00000E+000	9.30000E-002	-2.68022E-003	11	...........	-327.56
	12905	645.3	1.04813E-001	2.22881E-001	0.00000E+000	1.05000E-001	-2.67722E-003	11	...........	-327.56
	12917	645.9	1.16797E-001	2.21634E-001	0.00000E+000	1.17000E-001	-2.67555E-003	11	...........	-327.56
	12929	646.5	1.28808E-001	2.15309E-001	0.00000E+000	1.29000E-001	-2.68255E-003	11	...........	-327.56
	12941	647.1	1.40784E-001	2.12662E-001	0.00000E+000	1.41000E-001	-2.68522E-003	11	...........	-327.56
	12953	647.7	1.52826E-001	1.87689E-001	0.00000E+000	1.53000E-001	-2.67622E-003	11	...........	-327.56
	12965	648.3	1.64784E-001	2.03481E-001	0.00000E+000	1.65000E-001	-2.68222E-003	11	...........	-327.56
	12977	648.9	1.76794E-001	1.93053E-001	0.00000E+000	1.77000E-001	-2.68055E-003	11	...........	-327.56
	12989	649.5	1.88771E-001	1.94676E-001	0.00000E+000	1.89000E-001	-2.68255E-003	11	...........	-327.56
	13001	650.1	2.00730E-001	2.15744E-001	0.00000E+000	2.01000E-001	-2.68322E-003	11	...........	-327.56
	13013	650.7	2.12690E-001	2.24805E-001	0.00000E+000	2.13000E-001	-2.67589E-003	11	...........	-327.56
	13025	651.3	2.24678E-001	2.25851E-001	0.00000E+000	2.25000E-001	-2.68155E-003	11	...........	-327.56
	13037	651.9	2.36646E-001	2.38870E-001	0.00000E+000	2.37000E-001	-2.68189E-003	11	...........	-327.56
	13049	652.5	2.48600E-001	2.49213E-001	0.00000E+000	2.49000E-001	-2.68789E-003	11	...........	-327.56
	13061	653.1	2.60880E-001	2.46847E-001	0.00000E+000	2.61000E-001	-2.67022E-003	12	...........	-327.56
	13073	653.7	2.72726E-001	2.45795E-001	0.00000E+000	2.73000E-001	-2.67822E-003	12	...........	-327.56
	13085	654.3	2.84753E-001	2.53979E-001	0.00000E+000	2.85000E-001	-2.67222E-003	12	...........	-327.56
	13097	654.9	2.96673E-001	2.69094E-001	0.00000E+000	2.97000E-001	-2.68055E-003	12	...........	-327.56
	13109	655.5	3.08679E-001	2.67359E-001	0.00000E+000	3.09000E-001	-2.68222E-003	12	...........	-327.56
	13121	656.1	3.20609E-001	2.72856E-001	0.00000E+000	3.21000E-001	-2.67655E-003	12	...........	-327.56
	13133	656.7	3.32635E-001	2.90104E-001	0.00000E+000	3.33000E-001	-2.68022E-003	12	...........	-327.56
	13145	657.3	3.44659E-001	2.92910E-001	0.00000E+000	3.45000E-001	-2.68189E-003	12	...........	-327.56
	13157	657.9	3.56623E-001	3.03732E-001	0.00000E+000	3.57000E-001	-2.67655E-003	12	...........	-327.56
	13169	658.5	3.68611E-001	3.16955E-001	0.00000E+000	3.69000E-001	-2.67722E-003	12	...........	-327.56
	13181	659.1	3.80557E-001	3.25716E-001	0.00000E+000	3.81000E-001	-2.68122E-003	12	...........	-327.56
	13193	659.7	3.92585E-001	3.34998E-001	0.00000E+000	3.93000E-001	-2.67822E-003	12	...........	-327.56
	13205	660.3	4.04548E-001	3.48326E-001	0.00000E+000	4.05000E-001	-2.68522E-003	12	...........	-327.56
	13217	660.9	4.16547E-001	3.59496E-001	0.00000E+000	4.17000E-001	-2.68055E-003	12	...........	-327.56
	13229	661.5	4.28502E-001	3.73807E-001	0.00000E+000	4.29000E-001	-2.67889E-003	12	...........	-327.56
	13241	662.1	4.40521E-001	3.93426E-001	0.00000E+000	4.41000E-001	-2.67289E-003	12	...........	-327.56
	13253	662.7	4.52471E-001	4.06019E-001	0.00000E+000	4.53000E-001	-2.68055E-003	12	...........	-327.56
	13265	663.3	4.64461E-001	4.19099E-001	0.00000E+000	4.65000E-001	-2.68222E-003	12	...........	-327.56
	13277	663.9	4.76405E-001	4.35942E-001	0.00000E+000	4.77000E-001	-2.68655E-003	12	...........	-327.56
	13289	664.5	4.88424E-001	4.53677E-001	0.00000E+000	4.89000E-001	-2.67789E-003	12	...........	-327.56
	13301	665.1	5.00321E-001	4.75907E-001	0.00000E+000	5.01000E-001	-2.67822E-003	12	...........	-327.56
	13313	665.7	5.12315E-001	4.97199E-001	0.00000E+000	5.13000E-001	-2.68089E-003	12	...........	-327.56
	13325	666.3	5.24317E-001	5.15606E-001	0.00000E+000	5.25000E-001	-2.67822E-003	12	...........	-327.56
	13337	666.9	5.36286E-001	5.25336E-001	0.00000E+000	5.37000E-001	-2.67889E-003	12	...........	-327.56
	13349	667.5	5.48307E-001	5.16097E-001	0.00000E+000	5.49000E-001	-2.66755E-003	12	...........	-327.56
	13361	668.1	5.60323E-001	4.44301E-001	0.00000E+000	5.61000E-001	-2.68755E-003	12	...........	-327.56
	13373	668.7	5.72405E-001	3.78625E-001	0.00000E+000	5.73000E-001	-2.68155E-003	12	...........	-327.56
	13385	669.3	5.84391E-001	3.46943E-001	0.00000E+000	5.85000E-001	-2.68122E-003	12	...........	-327.56
	13397	669.9	5.96420E-001	3.33780E-001	0.00000E+000	5.97000E-001	-2.68122E-003	12	...........	-327.56
	13409	670.5	6.08386E-001	3.26248E-001	0.00000E+000	6.09000E-001	-2.68089E-003	12	...........	-327.56
	13421	671.1	6.20420E-001	3.19365E-001	0.00000E+000	6.21000E-001	-2.68055E-003	12	...........	-327.56
	13433	671.7	6.32373E-001	3.16289E-001	0.00000E+000	6.33000E-001	-2.68689E-003	12	...........	-327.56
	13445	672.3	6.44400E-001	3.11575E-001	0.00000E+000	6.45000E-001	-2.68489E-003	12	...........	-327.56
	13457	672.9	6.56346E-001	3.04494E-001	0.00000E+000	6.57000E-001	-2.68222E-003	12	...........	-327.56
	13469	673.5	6.68377E-001	2.98586E-001	0.00000E+000	6.69000E-001	-2.68189E-003	12	...........	-327.56
	13481	674.1	6.80328E-001	2.90913E-001	0.00000E+000	6.81000E-001	-2.68389E-003	12	...........	-327.56
	13493	674.7	6.92373E-001	2.81823E-001	0.00000E+000	6.93000E-001	-2.67522E-003	12	...........	-327.56
	13505	675.3	7.04306E-001	2.71524E-001	0.00000E+000	7.05000E-001	-2.66555E-003	12	...........	-327.56
	13517	675.9	7.16363E-001	2.62388E-001	0.00000E+000	7.17000E-001	-2.67789E-003	12	...........	-327.56
	13529	676.5	7.28368E-001	2.54386E-001	0.00000E+000	7.29000E-001	-2.68155E-003	12	...........	-327.56
	13541	677.1	7.40320E-001	2.42362E-001	0.00000E+000	7.41000E-001	-2.68855E-003	12	...........	-327.56
	13553	677.7	7.52100E-001	2.32751E-001	0.00000E+000	7.53000E-001	-2.67722E-003	11	...........	-327.56
	13565	678.3	7.64046E-001	2.25193E-001	0.00000E+000	7.65000E-001	-2.67555E-003	11	...........	-327.56
	13577	678.9	7.76124E-001	2.13312E-001	0.00000E+000	7.77000E-001	-2.68189E-003	11	...........	-327.56
	13589	679.5	7.88071E-001	2.04494E-001	0.00000E+000	7.89000E-001	-2.67655E-003	11	...........	-327.56
	13601	680.1	8.00142E-001	1.95701E-001	0.00000E+000	8.01000E-001	-2.68722E-003	11	...........	-327.56
	13613	680.7	8.12091E-001	1.88264E-001	0.00000E+000	8.13000E-001	-2.68022E-003	11	...........	-327.56
	13625	681.3	8.24109E-001	1.80992E-001	0.00000E+000	8.25000E-001	-2.67822E-003	11	...........	-327.56
	13637	681.9	8.36070E-001	1.74340E-001	0.00000E+000	8.37000E-001	-2.67722E-003	11	...........	-327.56
	13649	682.5	8.48109E-001	1.68923E-001	0.00000E+000	8.49000E-001	-2.67755E-003	11	...........	-327.56
	13661	683.1	8.60070E-001	1.64162E-001	0.00000E+000	8.61000E-001	-2.67855E-003	11	...........	-327.56
	13673	683.7	8.72125E-001	1.60335E-001	0.00000E+000	8.73000E-001	-2.68155E-003	11	...........	-327.56
	13685	684.3	8.84051E-001	1.58125E-001	0.00000E+000	8.85000E-001	-2.67922E-003	11	...........	-327.56
	13697	684.9	8.96099E-001	1.53808E-001	0.00000E+000	8.97000E-001	-2.68922E-003	11	...........	-327.56
	13709	685.5	9.08135E-001	1.52357E-001	0.00000E+000	9.09000E-001	-2.67289E-003	11	...........	-327.56
	13721	686.1	9.20102E-001	1.50145E-001	0.00000E+000	9.21000E-001	-2.67355E-003	11	...........	-327.56
	13733	686.7	9.32083E-001	1.48152E-001	0.00000E+000	9.33000E-001	-2.68755E-003	11	...........	-327.56
	13745	687.3	9.44037E-001	1.48115E-001	0.00000E+000	9.45000E-001	-2.68055E-003	11	...........	-327.56
	13757	687.9	9.56078E-001	1.44783E-001	0.00000E+000	9.57000E-001	-2.67855E-003	11	...........	-327.56
	13769	688.5	9.68042E-001	1.43185E-001	0.00000E+000	9.69000E-001	-2.68655E-003	11	...........	-327.56
	13781	689.1	9.80065E-001	1.41463E-001	0.00000E+000	9.81000E-001	-2.67022E-003	11	...........	-327.56
	13793	689.7	9.92022E-001	1.40352E-001	0.00000E+000	9.93000E-001	-2.68522E-003	11	...........	-327.56
	13805	690.3	1.00405E+000	1.38990E-001	0.00000E+000	1.00500E+000	-2.67889E-003	11	...........	-327.56
	13817	690.9	1.01603E+000	1.37378E-001	0.00000E+000	1.01700E+000	-2.68289E-003	11	...........	-327.56
	13829	691.5	1.02802E+000	1.36646E-001	0.00000E+000	1.02900E+000	-2.69055E-003	11	...........	-327.56
	13841	692.1	1.03997E+000	1.35399E-001	0.00000E+000	1.04100E+000	-2.68489E-003	11	...........	-327.56
	13853	692.7	1.05202E+000	1.34879E-001	0.00000E+000	1.05300E+000	-2.68589E-003	11	...........	-327.56
	13865	693.3	1.06396E+000	1.34058E-001	0.00000E+000	1.06500E+000	-2.67755E-003	11	...........	-327.56
	13877	693.9	1.07597E+000	1.34594E-001	0.00000E+000	1.07700E+000	-2.68789E-003	11	...........	-327.56
	13889	694.5	1.08799E+000	1.34609E-001	0.00000E+000	1.08900E+000	-2.67122E-003	11	...........	-327.56
	13901	695.1	1.09995E+000	1.34960E-001	0.00000E+000	1.10100E+000	-2.68022E-003	11	...........	-327.56
	13913	695.7	1.11198E+000	1.36667E-001	0.00000E+000	1.11300E+000	-2.68189E-003	11	...........	-327.56
	13925	696.3	1.12394E+000	1.41561E-001	0.00000E+000	1.12500E+000	-2.67955E-003	11	...........	-327.56
	13937	696.9	1.13591E+000	1.41913E-001	0.00000E+000	1.13700E+000	-2.67389E-003	11	...........	-327.56
	13949	697.5	1.14787E+000	1.46097E-001	0.00000E+000	1.14900E+000	-2.68222E-003	11	...........	-327.56
	13961	698.1	1.15988E+000	1.49201E-001	0.00000E+000	1.16100E+000	-2.67789E-003	11	...........	-327.56
	13973	698.7	1.17181E+000	1.52892E-001	0.00000E+000	1.17300E+000	-2.67655E-003	11	...........	-327.56
	13985	699.3	1.18382E+000	1.59044E-001	0.00000E+000	1.18500E+000	-2.67189E-003	11	...........	-327.56
	13997	699.9	1.19576E+000	1.62512E-001	0.00000E+000	1.19700E+000	-2.68422E-003	11	...........	-327.56
	14009	700.5	1.20778E+000	1.66016E-001	0.00000E+000	1.20900E+000	-2.67989E-003	11	...........	-327.56
	14021	701.1	1.21973E+000	1.67593E-001	0.00000E+000	1.22100E+000	-2.67389E-003	11	...........	-327.56
	14033	701.7	1.23175E+000	1.71804E-001	0.00000E+000	1.23300E+000	-2.68089E-003	11	...........	-327.56
	14045	702.3	1.24368E+000	1.76929E-001	0.00000E+000	1.24500E+000	-2.68289E-003	11	...........	-327.56
	14057	702.9	1.25571E+000	1.80243E-001	0.00000E+000	1.25700E+000	-2.68255E-003	11	...........	-327.56
	14069	703.5	1.26765E+000	1.84543E-001	0.00000E+000	1.26900E+000	-2.67022E-003	11	...........	-327.56
	14081	704.1	1.27967E+000	1.88057E-001	0.00000E+000	1.28100E+000	-2.68989E-003	11	...........	-327.56
	14093	704.7	1.29171E+000	1.92565E-001	0.00000E+000	1.29300E+000	-2.66889E-003	11	...........	-327.56
	14105	705.3	1.30363E+000	1.97984E-001	0.00000E+000	1.30500E+000	-2.68222E-003	11	...........	-327.56
	14117	705.9	1.31565E+000	2.04275E-001	0.00000E+000	1.31700E+000	-2.67922E-003	11	...........	-327.56
	14129	706.5	1.32759E+000	2.10468E-001	0.00000E+000	1.32900E+000	-2.67455E-003	11	...........	-327.56
	14141	707.1	1.33955E+000	2.20296E-001	0.00000E+000	1.34100E+000	-2.66755E-003	11	...........	-327.56
	14153	707.7	1.35150E+000	2.27848E-001	0.00000E+000	1.35300E+000	-2.67255E-003	11	...........	-327.56
	14165	708.3	1.36352E+000	2.38750E-001	0.00000E+000	1.36500E+000	-2.68255E-003	11	...........	-327.56
	14177	708.9	1.37544E+000	2.48754E-001	0.00000E+000	1.37700E+000	-2.68089E-003	11	...........	-327.56
	14189	709.5	1.38745E+000	2.61039E-001	0.00000E+000	1.38900E+000	-2.69155E-003	11	...........	-327.56
	14201	710.1	1.39973E+000	2.75260E-001	0.00000E+000	1.40100E+000	-2.67222E-003	12	...........	-327.56
	14213	710.7	1.41174E+000	2.91735E-001	0.00000E+000	1.41300E+000	-2.68222E-003	12	...........	-327.56
	14225	711.3	1.42366E+000	3.10941E-001	0.00000E+000	1.42500E+000	-2.68089E-003	12	...........	-327.56
	14237	711.9	1.43565E+000	3.29772E-001	0.00000E+000	1.43700E+000	-2.68622E-003	12	...........	-327.56
	14249	712.5	1.44756E+000	3.52415E-001	0.00000E+000	1.44900E+000	-2.67655E-003	12	...........	-327.56
	14261	713.1	1.45958E+000	3.74968E-001	0.00000E+000	1.46100E+000	-2.68722E-003	12	...........	-327.56
	14273	713.7	1.47159E+000	3.98595E-001	0.00000E+000	1.47300E+000	-2.68089E-003	12	...........	-327.56
	14285	714.3	1.48351E+000	4.23810E-001	0.00000E+000	1.48500E+000	-2.68355E-003	12	...........	-327.56
	14297	714.9	1.49552E+000	4.48799E-001	0.00000E+000	1.49700E+000	-2.67722E-003	12	...........	-327.56
	14309	715.5	1.50746E+000	4.73835E-001	0.00000E+000	1.50900E+000	-2.67855E-003	12	...........	-327.56
	14321	716.1	1.51946E+000	4.99624E-001	0.00000E+000	1.52100E+000	-2.67955E-003	12	...........	-327.56
	14333	716.7	1.53139E+000	5.25754E-001	0.00000E+000	1.53300E+000	-2.67922E-003	12	...........	-327.56
	14345	717.3	1.54338E+000	5.51624E-001	0.00000E+000	1.54500E+000	-2.66889E-003	12	...........	-327.56
	14357	717.9	1.55528E+000	5.78564E-001	0.00000E+000	1.55700E+000	-2.68155E-003	12	...........	-327.56
	14369	718.5	1.56730E+000	6.06483E-001	0.00000E+000	1.56900E+000	-2.67489E-003	12	...........	-327.56
	14381	719.1	1.57919E+000	6.33509E-001	0.00000E+000	1.58100E+000	-2.68589E-003	12	...........	-327.56
	14393	719.7	1.59123E+000	6.62801E-001	0.00000E+000	1.59300E+000	-2.67755E-003	12	...........	-327.56
	14405	720.3	1.60313E+000	6.84616E-001	0.00000E+000	1.60500E+000	-2.67089E-003	12	...........	-327.56
	14417	720.9	1.61518E+000	7.14757E-001	0.00000E+000	1.61700E+000	-2.68055E-003	12	...........	-327.56
	14429	721.5	1.62708E+000	7.39877E-001	0.00000E+000	1.62900E+000	-2.67855E-003	12	...........	-327.56
	14441	722.1	1.63911E+000	7.67132E-001	0.00000E+000	1.64100E+000	-2.69022E-003	12	...........	-327.56
	14453	722.7	1.65109E+000	7.95154E-001	0.00000E+000	1.65300E+000	-2.67189E-003	12	...........	-327.56
	14465	723.3	1.66301E+000	8.23814E-001	0.00000E+000	1.66500E+000	-2.68922E-003	12	...........	-327.56
	14477	723.9	1.67503E+000	8.53957E-001	0.00000E+000	1.67700E+000	-2.67755E-003	12	...........	-327.56
	14489	724.5	1.68695E+000	8.81636E-001	0.00000E+000	1.68900E+000	-2.68022E-003	12	...........	-327.56
	14500	725.05	1.69796E+000	9.06487E-001	0.00000E+000	1.70000E+000	-2.68289E-003	12	...........	-327.56
CURVE4	TABLE
	Pt	T	Vf	Im	Vu	Sig	Ach	IERange	Over	Temp
	#	s	V vs. Ref.	A	V	V	V	#	bits	deg C
	14501	725.1	1.69795E+000	9.05316E-001	0.00000E+000	1.70000E+000	-2.67789E-003	12	...........	-327.56