File: testing/data/240902_09_MCL13_cswWE_CV2_750C_CO2.DTA
EXPLAIN
TAG	CV
TITLE	LABEL	Cyclic Voltammetry	Test Identifier
DATE	LABEL	9/3/2024	Date
TIME	LABEL	2:10:46	Time
NOTES	NOTES	5	Notes...
	cswWE - carbon steel wire
cspWE - carbon steel plate 2x2 tapered

Carbon steel plate counter electrode
Carbon steel wire reference electrode
PSTAT	PSTAT	REF3000-48128	Potentiostat
VINIT	POTEN	0.00000E+000	T	Initial E (V)
VLIMIT1	POTEN	1.70000E+000	F	Scan Limit 1 (V)
VLIMIT2	POTEN	-9.00000E-001	F	Scan Limit 2 (V)
VFINAL	POTEN	1.70000E+000	F	Final E (V)
SCANRATE	QUANT	2.00000E+000	Scan Rate (mV/s)
STEPSIZE	QUANT	1.00000E+000	Step Size (mV)
CYCLES	IQUANT	2	Cycles (#)
IMODE	SELECTOR	0	I/E Range Mode
IRANGE	QUANT	3.00000E-001	Max Current (mA)
AREA	QUANT	1.00000E+000	Sample Area (cm^2)
EQDELAY	QUANT	0.00000E+000	Equil. Time (s)
IRCOMP	SELECTOR	0	IRComp
PFCOR	QUANT	5.00000E+001	PF Corr. (ohm)
SAMPLINGMODE	SELECTOR	1	Sampling Mode
EOC	QUANT	0.1603511	Open Circuit (V)
ELECTRODETYPE	SELECTOR	0	Electrode Type
STRIPPING	TOGGLE	F	Used for Stripping
SEQUENCER	TOGGLE	TRUE	Run as Sequence
PSTATMODEL	IQUANT	5	Pstat Model
PSTATSECTION	LABEL	REF3000-48128	Pstat Section
PSTATSERIALNO	LABEL	48128	Pstat Serial Number
CTRLMODE	IQUANT	1	Control Mode
ELECTROMETER	IQUANT	0	RE=0 or CS=1
IESTAB	IQUANT	2	I/E Stability
CASPEED	IQUANT	4	Control Amp Speed
CONVENTION	IQUANT	1	Current Convention
ICHRANGE	IQUANT	2	Ich Range
ICHRANGEMODE	TOGGLE	F	Ich Auto Range
ICHOFFSETENABLE	TOGGLE	F	Ich Offset Enable
ICHOFFSET	QUANT	0	Ich Offset (V)
ICHFILTER	IQUANT	3	Ich Filter
VCHRANGE	IQUANT	2	Vch Range
VCHRANGEMODE	TOGGLE	F	Vch Auto Range
VCHOFFSETENABLE	TOGGLE	F	Vch Offset Enable
VCHOFFSET	QUANT	0	Vch Offset (V)
VCHFILTER	IQUANT	3	Vch Filter
ACHRANGE	IQUANT	2	Ach Range
ACHOFFSETENABLE	TOGGLE	F	Ach Offset Enable
ACHOFFSET	QUANT	0	Ach Offset (V)
ACHFILTER	IQUANT	1	Ach Filter
IERANGELOWERLIMIT	IQUANT	2	I/E Range Lower Limit
IERANGEMODE	TOGGLE	T	I/E AutoRange
IERANGE	IQUANT	9	I/E Range
POSFEEDENABLE	TOGGLE	F	Positive Feedback IR Comp
POSFEEDRESISTANCE	QUANT	0	Positive Feedback Resistance (ohm)
ACHSELECT	IQUANT	4	Ach Select
SENSECABLEID	IQUANT	14	Sense Cable ID
PWRCABLEID	IQUANT	7	Power Cable ID
DCCALDATE	LABEL	8/16/2024	DC Calibration Date
ACCALDATE	LABEL	8/16/2024	AC Calibration Date
THERMOSELECT	IQUANT	1	Thermo Select
FRAMEWORKVERSION	LABEL	7.10.3	Framework Version
INSTRUMENTVERSION	LABEL	4.91	Instrument Version
COMMVERSION	LABEL	5.10	Communications Version
CPUPLDVERSION	LABEL	6.00	CPU PLD Version
CTRLPLDVERSION	LABEL	3.21	CTRL PLD Version
PSTATPLDVERSION	LABEL	0.00	PSTAT PLD Version
COMPLIANCEVOLTAGE	IQUANT	0	Compliance Voltage
CURVE1	TABLE
	Pt	T	Vf	Im	Vu	Sig	Ach	IERange	Over	Temp
	#	s	V vs. Ref.	A	V	V	V	#	bits	deg C
	0	0.5	1.60050E-001	5.19932E-004	0.00000E+000	1.60350E-001	-9.18214E-005	9	...........	-327.56
	9	5	1.69005E-001	3.14826E-003	0.00000E+000	1.69350E-001	-9.66548E-005	10	...........	-327.56
	18	9.5	1.77998E-001	5.29962E-003	0.00000E+000	1.78350E-001	-9.44214E-005	10	...........	-327.56
	27	14	1.87027E-001	7.54831E-003	0.00000E+000	1.87350E-001	-9.57881E-005	10	...........	-327.56
	36	18.5	1.95915E-001	8.97727E-003	0.00000E+000	1.96350E-001	-9.09881E-005	10	...........	-327.56
	45	23	2.04921E-001	1.06565E-002	0.00000E+000	2.05350E-001	-1.05121E-004	10	...........	-327.56
	54	27.5	2.13890E-001	1.23886E-002	0.00000E+000	2.14350E-001	-1.03421E-004	10	...........	-327.56
	63	32	2.22814E-001	1.47291E-002	0.00000E+000	2.23350E-001	-1.05288E-004	10	...........	-327.56
	72	36.5	2.31872E-001	1.60219E-002	0.00000E+000	2.32350E-001	-1.01855E-004	10	...........	-327.56
	81	41	2.40834E-001	1.72793E-002	0.00000E+000	2.41350E-001	-1.03955E-004	10	...........	-327.56
	90	45.5	2.49770E-001	1.88803E-002	0.00000E+000	2.50350E-001	-1.02355E-004	10	...........	-327.56
	99	50	2.58750E-001	2.11152E-002	0.00000E+000	2.59350E-001	-9.80214E-005	10	...........	-327.56
	108	54.5	2.67770E-001	2.12921E-002	0.00000E+000	2.68350E-001	-9.87548E-005	10	...........	-327.56
	117	59	2.76714E-001	2.34551E-002	0.00000E+000	2.77350E-001	-1.04455E-004	10	...........	-327.56
	126	63.5	2.85704E-001	2.50190E-002	0.00000E+000	2.86350E-001	-1.03121E-004	10	...........	-327.56
	135	68	2.94887E-001	2.75191E-002	0.00000E+000	2.95350E-001	-1.04588E-004	11	...........	-327.56
	144	72.5	3.03941E-001	2.86997E-002	0.00000E+000	3.04350E-001	-1.07655E-004	11	...........	-327.56
	153	77	3.12916E-001	3.06089E-002	0.00000E+000	3.13350E-001	-1.06321E-004	11	...........	-327.56
	162	81.5	3.21820E-001	3.27787E-002	0.00000E+000	3.22350E-001	-1.07721E-004	11	...........	-327.56
	171	86	3.30851E-001	3.44856E-002	0.00000E+000	3.31350E-001	-1.03088E-004	11	...........	-327.56
	180	90.5	3.39891E-001	3.60584E-002	0.00000E+000	3.40350E-001	-9.50214E-005	11	...........	-327.56
	189	95	3.48795E-001	3.43790E-002	0.00000E+000	3.49350E-001	-1.04488E-004	11	...........	-327.56
	198	99.5	3.57859E-001	3.16313E-002	0.00000E+000	3.58350E-001	-1.03188E-004	11	...........	-327.56
	207	104	3.66889E-001	2.80906E-002	0.00000E+000	3.67350E-001	-1.02788E-004	11	...........	-327.56
	216	108.5	3.75894E-001	2.54676E-002	0.00000E+000	3.76350E-001	-1.04921E-004	11	...........	-327.56
	225	113	3.84616E-001	2.10569E-002	0.00000E+000	3.85350E-001	-1.01888E-004	10	...........	-327.56
	234	117.5	3.93655E-001	1.97313E-002	0.00000E+000	3.94350E-001	-1.02955E-004	10	...........	-327.56
	243	122	4.02615E-001	1.84579E-002	0.00000E+000	4.03350E-001	-1.02888E-004	10	...........	-327.56
	252	126.5	4.11650E-001	1.77614E-002	0.00000E+000	4.12350E-001	-1.02588E-004	10	...........	-327.56
	261	131	4.20695E-001	1.68087E-002	0.00000E+000	4.21350E-001	-1.04821E-004	10	...........	-327.56
	270	135.5	4.29617E-001	1.60298E-002	0.00000E+000	4.30350E-001	-1.02788E-004	10	...........	-327.56
	279	140	4.38707E-001	1.49188E-002	0.00000E+000	4.39350E-001	-9.85881E-005	10	...........	-327.56
	288	144.5	4.47671E-001	1.60175E-002	0.00000E+000	4.48350E-001	-9.88214E-005	10	...........	-327.56
	297	149	4.56631E-001	1.62049E-002	0.00000E+000	4.57350E-001	-9.89881E-005	10	...........	-327.56
	306	153.5	4.65659E-001	1.64349E-002	0.00000E+000	4.66350E-001	-1.05755E-004	10	...........	-327.56
	315	158	4.74556E-001	1.66191E-002	0.00000E+000	4.75350E-001	-1.06621E-004	10	...........	-327.56
	324	162.5	4.83596E-001	1.69191E-002	0.00000E+000	4.84350E-001	-9.81214E-005	10	...........	-327.56
	333	167	4.92652E-001	1.70281E-002	0.00000E+000	4.93350E-001	-1.00755E-004	10	...........	-327.56
	342	171.5	5.01549E-001	1.71562E-002	0.00000E+000	5.02350E-001	-1.03855E-004	10	...........	-327.56
	351	176	5.10590E-001	1.71846E-002	0.00000E+000	5.11350E-001	-1.05488E-004	10	...........	-327.56
	360	180.5	5.19569E-001	1.73332E-002	0.00000E+000	5.20350E-001	-1.03521E-004	10	...........	-327.56
	369	185	5.28496E-001	1.74076E-002	0.00000E+000	5.29350E-001	-1.03721E-004	10	...........	-327.56
	378	189.5	5.37536E-001	1.73393E-002	0.00000E+000	5.38350E-001	-1.01455E-004	10	...........	-327.56
	387	194	5.46561E-001	1.73892E-002	0.00000E+000	5.47350E-001	-1.03221E-004	10	...........	-327.56
	396	198.5	5.55500E-001	1.73863E-002	0.00000E+000	5.56350E-001	-9.92548E-005	10	...........	-327.56
	405	203	5.64540E-001	1.73474E-002	0.00000E+000	5.65350E-001	-9.93214E-005	10	...........	-327.56
	414	207.5	5.73540E-001	1.73370E-002	0.00000E+000	5.74350E-001	-1.00688E-004	10	...........	-327.56
	423	212	5.82482E-001	1.71895E-002	0.00000E+000	5.83350E-001	-1.06455E-004	10	...........	-327.56
	432	216.5	5.91516E-001	1.73044E-002	0.00000E+000	5.92350E-001	-1.00355E-004	10	...........	-327.56
	441	221	6.00540E-001	1.73551E-002	0.00000E+000	6.01350E-001	-1.01188E-004	10	...........	-327.56
	450	225.5	6.09517E-001	1.73222E-002	0.00000E+000	6.10350E-001	-1.00855E-004	10	...........	-327.56
	459	230	6.18482E-001	1.73663E-002	0.00000E+000	6.19350E-001	-1.02021E-004	10	...........	-327.56
	468	234.5	6.27397E-001	1.73142E-002	0.00000E+000	6.28350E-001	-1.01121E-004	10	...........	-327.56
	477	239	6.36435E-001	1.71808E-002	0.00000E+000	6.37350E-001	-9.98548E-005	10	...........	-327.56
	486	243.5	6.45482E-001	1.67739E-002	0.00000E+000	6.46350E-001	-9.83214E-005	10	...........	-327.56
	495	248	6.54369E-001	1.67380E-002	0.00000E+000	6.55350E-001	-1.05355E-004	10	...........	-327.56
	504	252.5	6.63443E-001	1.67773E-002	0.00000E+000	6.64350E-001	-1.01821E-004	10	...........	-327.56
	513	257	6.72472E-001	1.68137E-002	0.00000E+000	6.73350E-001	-1.01321E-004	10	...........	-327.56
	522	261.5	6.81470E-001	1.66078E-002	0.00000E+000	6.82350E-001	-1.05421E-004	10	...........	-327.56
	531	266	6.90414E-001	1.67296E-002	0.00000E+000	6.91350E-001	-9.89214E-005	10	...........	-327.56
	540	270.5	6.99462E-001	1.67101E-002	0.00000E+000	7.00350E-001	-1.03188E-004	10	...........	-327.56
	549	275	7.08386E-001	1.65080E-002	0.00000E+000	7.09350E-001	-9.91881E-005	10	...........	-327.56
	558	279.5	7.17383E-001	1.63056E-002	0.00000E+000	7.18350E-001	-1.01155E-004	10	...........	-327.56
	567	284	7.26386E-001	1.65158E-002	0.00000E+000	7.27350E-001	-1.01955E-004	10	...........	-327.56
	576	288.5	7.35348E-001	1.63568E-002	0.00000E+000	7.36350E-001	-1.00621E-004	10	...........	-327.56
	585	293	7.44378E-001	1.62623E-002	0.00000E+000	7.45350E-001	-1.00155E-004	10	...........	-327.56
	594	297.5	7.53402E-001	1.62568E-002	0.00000E+000	7.54350E-001	-9.92548E-005	10	...........	-327.56
	603	302	7.62324E-001	1.60709E-002	0.00000E+000	7.63350E-001	-1.01188E-004	10	...........	-327.56
	612	306.5	7.71373E-001	1.59568E-002	0.00000E+000	7.72350E-001	-1.01255E-004	10	...........	-327.56
	621	311	7.80345E-001	1.57958E-002	0.00000E+000	7.81350E-001	-9.98214E-005	10	...........	-327.56
	630	315.5	7.89317E-001	1.56810E-002	0.00000E+000	7.90350E-001	-1.01721E-004	10	...........	-327.56
	639	320	7.98357E-001	1.54748E-002	0.00000E+000	7.99350E-001	-1.00155E-004	10	...........	-327.56
	648	324.5	8.07267E-001	1.54129E-002	0.00000E+000	8.08350E-001	-1.01855E-004	10	...........	-327.56
	657	329	8.16323E-001	1.51842E-002	0.00000E+000	8.17350E-001	-9.90214E-005	10	...........	-327.56
	666	333.5	8.25305E-001	1.51136E-002	0.00000E+000	8.26350E-001	-9.95881E-005	10	...........	-327.56
	675	338	8.34229E-001	1.49553E-002	0.00000E+000	8.35350E-001	-1.00588E-004	10	...........	-327.56
	684	342.5	8.43269E-001	1.48401E-002	0.00000E+000	8.44350E-001	-1.04288E-004	10	...........	-327.56
	693	347	8.52298E-001	1.47436E-002	0.00000E+000	8.53350E-001	-1.06121E-004	10	...........	-327.56
	702	351.5	8.61223E-001	1.46558E-002	0.00000E+000	8.62350E-001	-1.01921E-004	10	...........	-327.56
	711	356	8.70299E-001	1.45970E-002	0.00000E+000	8.71350E-001	-1.02655E-004	10	...........	-327.56
	720	360.5	8.79280E-001	1.45732E-002	0.00000E+000	8.80350E-001	-1.02188E-004	10	...........	-327.56
	729	365	8.88215E-001	1.46738E-002	0.00000E+000	8.89350E-001	-9.96881E-005	10	...........	-327.56
	738	369.5	8.97227E-001	1.47765E-002	0.00000E+000	8.98350E-001	-1.02021E-004	10	...........	-327.56
	747	374	9.06272E-001	1.49161E-002	0.00000E+000	9.07350E-001	-9.93881E-005	10	...........	-327.56
	756	378.5	9.15180E-001	1.50611E-002	0.00000E+000	9.16350E-001	-1.02488E-004	10	...........	-327.56
	765	383	9.24207E-001	1.53886E-002	0.00000E+000	9.25350E-001	-1.03255E-004	10	...........	-327.56
	774	387.5	9.33196E-001	1.58295E-002	0.00000E+000	9.34350E-001	-9.90548E-005	10	...........	-327.56
	783	392	9.42139E-001	1.63895E-002	0.00000E+000	9.43350E-001	-1.00955E-004	10	...........	-327.56
	792	396.5	9.51154E-001	1.71453E-002	0.00000E+000	9.52350E-001	-9.99548E-005	10	...........	-327.56
	801	401	9.60105E-001	1.80949E-002	0.00000E+000	9.61350E-001	-1.00455E-004	10	...........	-327.56
	810	405.5	9.69073E-001	1.92730E-002	0.00000E+000	9.70350E-001	-1.02388E-004	10	...........	-327.56
	819	410	9.78112E-001	2.05365E-002	0.00000E+000	9.79350E-001	-9.84214E-005	10	...........	-327.56
	828	414.5	9.87079E-001	2.19481E-002	0.00000E+000	9.88350E-001	-1.00155E-004	10	...........	-327.56
	837	419	9.96008E-001	2.34803E-002	0.00000E+000	9.97350E-001	-9.89214E-005	10	...........	-327.56
	846	423.5	1.00504E+000	2.50403E-002	0.00000E+000	1.00635E+000	-9.70548E-005	10	...........	-327.56
	855	428	1.01393E+000	2.68708E-002	0.00000E+000	1.01535E+000	-9.80881E-005	10	...........	-327.56
	864	432.5	1.02324E+000	2.87371E-002	0.00000E+000	1.02435E+000	-1.07455E-004	11	...........	-327.56
	873	437	1.03229E+000	3.07014E-002	0.00000E+000	1.03335E+000	-1.01055E-004	11	...........	-327.56
	882	441.5	1.04119E+000	3.25418E-002	0.00000E+000	1.04235E+000	-1.02621E-004	11	...........	-327.56
	891	446	1.05022E+000	3.44933E-002	0.00000E+000	1.05135E+000	-1.01821E-004	11	...........	-327.56
	900	450.5	1.05924E+000	3.61184E-002	0.00000E+000	1.06035E+000	-1.04288E-004	11	...........	-327.56
	909	455	1.06818E+000	3.76573E-002	0.00000E+000	1.06935E+000	-1.02755E-004	11	...........	-327.56
	918	459.5	1.07720E+000	3.94224E-002	0.00000E+000	1.07835E+000	-1.01955E-004	11	...........	-327.56
	927	464	1.08624E+000	4.08111E-002	0.00000E+000	1.08735E+000	-1.02988E-004	11	...........	-327.56
	936	468.5	1.09515E+000	4.19309E-002	0.00000E+000	1.09635E+000	-1.01055E-004	11	...........	-327.56
	945	473	1.10421E+000	4.27115E-002	0.00000E+000	1.10535E+000	-1.05455E-004	11	...........	-327.56
	954	477.5	1.11318E+000	4.25949E-002	0.00000E+000	1.11435E+000	-1.02588E-004	11	...........	-327.56
	963	482	1.12216E+000	4.19632E-002	0.00000E+000	1.12335E+000	-1.03721E-004	11	...........	-327.56
	972	486.5	1.13115E+000	4.03783E-002	0.00000E+000	1.13235E+000	-1.06355E-004	11	...........	-327.56
	981	491	1.14005E+000	3.78756E-002	0.00000E+000	1.14135E+000	-1.06955E-004	11	...........	-327.56
	990	495.5	1.14910E+000	3.55295E-002	0.00000E+000	1.15035E+000	-1.02021E-004	11	...........	-327.56
	999	500	1.15814E+000	3.37223E-002	0.00000E+000	1.15935E+000	-9.96214E-005	11	...........	-327.56
	1008	504.5	1.16707E+000	3.29594E-002	0.00000E+000	1.16835E+000	-1.03788E-004	11	...........	-327.56
	1017	509	1.17610E+000	3.33900E-002	0.00000E+000	1.17735E+000	-1.03421E-004	11	...........	-327.56
	1026	513.5	1.18509E+000	3.48962E-002	0.00000E+000	1.18635E+000	-1.06888E-004	11	...........	-327.56
	1035	518	1.19403E+000	3.75338E-002	0.00000E+000	1.19535E+000	-1.02621E-004	11	...........	-327.56
	1044	522.5	1.20309E+000	4.07132E-002	0.00000E+000	1.20435E+000	-1.04521E-004	11	...........	-327.56
	1053	527	1.21208E+000	4.44687E-002	0.00000E+000	1.21335E+000	-1.04621E-004	11	...........	-327.56
	1062	531.5	1.22100E+000	4.82667E-002	0.00000E+000	1.22235E+000	-1.04588E-004	11	...........	-327.56
	1071	536	1.23002E+000	5.33001E-002	0.00000E+000	1.23135E+000	-1.03221E-004	11	...........	-327.56
	1080	540.5	1.23905E+000	5.94604E-002	0.00000E+000	1.24035E+000	-1.00088E-004	11	...........	-327.56
	1089	545	1.24797E+000	6.62408E-002	0.00000E+000	1.24935E+000	-1.03055E-004	11	...........	-327.56
	1098	549.5	1.25700E+000	7.41211E-002	0.00000E+000	1.25835E+000	-1.03855E-004	11	...........	-327.56
	1107	554	1.26600E+000	8.28237E-002	0.00000E+000	1.26735E+000	-1.03855E-004	11	...........	-327.56
	1116	558.5	1.27493E+000	9.28995E-002	0.00000E+000	1.27635E+000	-1.03321E-004	11	...........	-327.56
	1125	563	1.28394E+000	1.04031E-001	0.00000E+000	1.28535E+000	-9.72881E-005	11	...........	-327.56
	1134	567.5	1.29289E+000	1.09500E-001	0.00000E+000	1.29435E+000	-9.93881E-005	11	...........	-327.56
	1143	572	1.30185E+000	1.25416E-001	0.00000E+000	1.30335E+000	-1.00688E-004	11	...........	-327.56
	1152	576.5	1.31087E+000	1.40611E-001	0.00000E+000	1.31235E+000	-9.78881E-005	11	...........	-327.56
	1161	581	1.31978E+000	1.56135E-001	0.00000E+000	1.32135E+000	-1.04288E-004	11	...........	-327.56
	1170	585.5	1.32875E+000	1.72923E-001	0.00000E+000	1.33035E+000	-9.73881E-005	11	...........	-327.56
	1179	590	1.33771E+000	1.90437E-001	0.00000E+000	1.33935E+000	-1.01688E-004	11	...........	-327.56
	1188	594.5	1.34659E+000	2.07477E-001	0.00000E+000	1.34835E+000	-1.02655E-004	11	...........	-327.56
	1197	599	1.35561E+000	2.22656E-001	0.00000E+000	1.35735E+000	-1.01821E-004	11	...........	-327.56
	1206	603.5	1.36463E+000	2.45469E-001	0.00000E+000	1.36635E+000	-9.91214E-005	11	...........	-327.56
	1215	608	1.37351E+000	2.63346E-001	0.00000E+000	1.37535E+000	-9.72214E-005	11	...........	-327.56
	1224	612.5	1.38280E+000	2.83876E-001	0.00000E+000	1.38435E+000	-1.01488E-004	12	...........	-327.56
	1233	617	1.39184E+000	3.00880E-001	0.00000E+000	1.39335E+000	-1.00655E-004	12	...........	-327.56
	1242	621.5	1.40073E+000	3.23347E-001	0.00000E+000	1.40235E+000	-1.01121E-004	12	...........	-327.56
	1251	626	1.40978E+000	3.44296E-001	0.00000E+000	1.41135E+000	-1.05788E-004	12	...........	-327.56
	1260	630.5	1.41874E+000	3.67130E-001	0.00000E+000	1.42035E+000	-1.01788E-004	12	...........	-327.56
	1269	635	1.42769E+000	3.79684E-001	0.00000E+000	1.42935E+000	-9.90881E-005	12	...........	-327.56
	1278	639.5	1.43672E+000	3.97351E-001	0.00000E+000	1.43835E+000	-1.02988E-004	12	...........	-327.56
	1287	644	1.44568E+000	4.17408E-001	0.00000E+000	1.44735E+000	-1.08988E-004	12	...........	-327.56
	1296	648.5	1.45463E+000	4.37393E-001	0.00000E+000	1.45635E+000	-1.01855E-004	12	...........	-327.56
	1305	653	1.46364E+000	4.52196E-001	0.00000E+000	1.46535E+000	-1.02055E-004	12	...........	-327.56
	1314	657.5	1.47256E+000	4.74576E-001	0.00000E+000	1.47435E+000	-1.00455E-004	12	...........	-327.56
	1323	662	1.48157E+000	4.94743E-001	0.00000E+000	1.48335E+000	-1.01621E-004	12	...........	-327.56
	1332	666.5	1.49061E+000	5.20023E-001	0.00000E+000	1.49235E+000	-1.02155E-004	12	...........	-327.56
	1341	671	1.49950E+000	5.44192E-001	0.00000E+000	1.50135E+000	-1.01721E-004	12	...........	-327.56
	1350	675.5	1.50852E+000	5.70719E-001	0.00000E+000	1.51035E+000	-1.04888E-004	12	...........	-327.56
	1359	680	1.51753E+000	5.92050E-001	0.00000E+000	1.51935E+000	-9.61548E-005	12	...........	-327.56
	1368	684.5	1.52640E+000	6.17076E-001	0.00000E+000	1.52835E+000	-1.00988E-004	12	...........	-327.56
	1377	689	1.53545E+000	6.42308E-001	0.00000E+000	1.53735E+000	-1.03121E-004	12	...........	-327.56
	1386	693.5	1.54443E+000	6.68923E-001	0.00000E+000	1.54635E+000	-1.04721E-004	12	...........	-327.56
	1395	698	1.55340E+000	6.90616E-001	0.00000E+000	1.55535E+000	-1.05855E-004	12	...........	-327.56
	1404	702.5	1.56235E+000	7.16257E-001	0.00000E+000	1.56435E+000	-9.66214E-005	12	...........	-327.56
	1413	707	1.57137E+000	7.45283E-001	0.00000E+000	1.57335E+000	-1.02721E-004	12	...........	-327.56
	1422	711.5	1.58029E+000	7.73413E-001	0.00000E+000	1.58235E+000	-1.01755E-004	12	...........	-327.56
	1431	716	1.58931E+000	7.92350E-001	0.00000E+000	1.59135E+000	-1.01055E-004	12	...........	-327.56
	1440	720.5	1.59831E+000	8.17704E-001	0.00000E+000	1.60035E+000	-1.02321E-004	12	...........	-327.56
	1449	725	1.60721E+000	8.43102E-001	0.00000E+000	1.60935E+000	-1.02255E-004	12	...........	-327.56
	1458	729.5	1.61626E+000	8.69087E-001	0.00000E+000	1.61835E+000	-1.03021E-004	12	...........	-327.56
	1467	734	1.62522E+000	8.95472E-001	0.00000E+000	1.62735E+000	-1.03388E-004	12	...........	-327.56
	1476	738.5	1.63417E+000	9.29156E-001	0.00000E+000	1.63635E+000	-1.02221E-004	12	...........	-327.56
	1485	743	1.64317E+000	9.49287E-001	0.00000E+000	1.64535E+000	-1.01855E-004	12	...........	-327.56
	1494	747.5	1.65203E+000	9.85942E-001	0.00000E+000	1.65435E+000	-1.03388E-004	12	...........	-327.56
	1503	752	1.66108E+000	1.01119E+000	0.00000E+000	1.66335E+000	-9.97214E-005	12	...........	-327.56
	1512	756.5	1.67011E+000	1.03407E+000	0.00000E+000	1.67235E+000	-1.03221E-004	12	...........	-327.56
	1521	761	1.67902E+000	1.06867E+000	0.00000E+000	1.68135E+000	-1.04721E-004	12	...........	-327.56
	1530	765.5	1.68801E+000	1.09400E+000	0.00000E+000	1.69035E+000	-1.03321E-004	12	...........	-327.56
	1539	770	1.69706E+000	1.11346E+000	0.00000E+000	1.69935E+000	-1.01388E-004	12	...........	-327.56
	1548	774.5	1.69003E+000	1.09295E+000	0.00000E+000	1.69235E+000	-1.02055E-004	12	...........	-327.56
	1557	779	1.68101E+000	1.09230E+000	0.00000E+000	1.68335E+000	-1.01955E-004	12	...........	-327.56
	1566	783.5	1.67210E+000	1.07646E+000	0.00000E+000	1.67435E+000	-1.01488E-004	12	...........	-327.56
	1575	788	1.66305E+000	1.05929E+000	0.00000E+000	1.66535E+000	-1.01621E-004	12	...........	-327.56
	1584	792.5	1.65405E+000	1.02659E+000	0.00000E+000	1.65635E+000	-1.00321E-004	12	...........	-327.56
	1593	797	1.64513E+000	1.01603E+000	0.00000E+000	1.64735E+000	-9.72881E-005	12	...........	-327.56
	1602	801.5	1.63616E+000	9.85413E-001	0.00000E+000	1.63835E+000	-1.03321E-004	12	...........	-327.56
	1611	806	1.62713E+000	9.73160E-001	0.00000E+000	1.62935E+000	-1.02688E-004	12	...........	-327.56
	1620	810.5	1.61821E+000	9.44507E-001	0.00000E+000	1.62035E+000	-1.05255E-004	12	...........	-327.56
	1629	815	1.60915E+000	9.32523E-001	0.00000E+000	1.61135E+000	-1.00221E-004	12	...........	-327.56
	1638	819.5	1.60018E+000	9.19726E-001	0.00000E+000	1.60235E+000	-1.01821E-004	12	...........	-327.56
	1647	824	1.59124E+000	8.96186E-001	0.00000E+000	1.59335E+000	-1.01321E-004	12	...........	-327.56
	1656	828.5	1.58228E+000	8.80242E-001	0.00000E+000	1.58435E+000	-1.03288E-004	12	...........	-327.56
	1665	833	1.57329E+000	8.57759E-001	0.00000E+000	1.57535E+000	-1.02355E-004	12	...........	-327.56
	1674	837.5	1.56430E+000	8.36061E-001	0.00000E+000	1.56635E+000	-9.96214E-005	12	...........	-327.56
	1683	842	1.55524E+000	8.12785E-001	0.00000E+000	1.55735E+000	-1.01588E-004	12	...........	-327.56
	1692	846.5	1.54634E+000	7.99555E-001	0.00000E+000	1.54835E+000	-1.00355E-004	12	...........	-327.56
	1701	851	1.53737E+000	7.75197E-001	0.00000E+000	1.53935E+000	-1.02455E-004	12	...........	-327.56
	1710	855.5	1.52836E+000	7.55729E-001	0.00000E+000	1.53035E+000	-9.98214E-005	12	...........	-327.56
	1719	860	1.51944E+000	7.34430E-001	0.00000E+000	1.52135E+000	-1.00188E-004	12	...........	-327.56
	1728	864.5	1.51041E+000	7.12139E-001	0.00000E+000	1.51235E+000	-1.02955E-004	12	...........	-327.56
	1737	869	1.50142E+000	6.93862E-001	0.00000E+000	1.50335E+000	-1.02388E-004	12	...........	-327.56
	1746	873.5	1.49251E+000	6.69197E-001	0.00000E+000	1.49435E+000	-9.88881E-005	12	...........	-327.56
	1755	878	1.48347E+000	6.51276E-001	0.00000E+000	1.48535E+000	-1.00721E-004	12	...........	-327.56
	1764	882.5	1.47447E+000	6.26228E-001	0.00000E+000	1.47635E+000	-1.02788E-004	12	...........	-327.56
	1773	887	1.46555E+000	6.08703E-001	0.00000E+000	1.46735E+000	-1.02888E-004	12	...........	-327.56
	1782	891.5	1.45652E+000	5.86746E-001	0.00000E+000	1.45835E+000	-1.01155E-004	12	...........	-327.56
	1791	896	1.44751E+000	5.68778E-001	0.00000E+000	1.44935E+000	-1.04155E-004	12	...........	-327.56
	1800	900.5	1.43861E+000	5.50171E-001	0.00000E+000	1.44035E+000	-1.00321E-004	12	...........	-327.56
	1809	905	1.42959E+000	5.30406E-001	0.00000E+000	1.43135E+000	-1.04488E-004	12	...........	-327.56
	1818	909.5	1.42067E+000	5.08605E-001	0.00000E+000	1.42235E+000	-1.00355E-004	12	...........	-327.56
	1827	914	1.41169E+000	4.88783E-001	0.00000E+000	1.41335E+000	-1.05288E-004	12	...........	-327.56
	1836	918.5	1.40265E+000	4.66241E-001	0.00000E+000	1.40435E+000	-1.05388E-004	12	...........	-327.56
	1845	923	1.39373E+000	4.47744E-001	0.00000E+000	1.39535E+000	-1.00921E-004	12	...........	-327.56
	1854	927.5	1.38474E+000	4.28343E-001	0.00000E+000	1.38635E+000	-1.01055E-004	12	...........	-327.56
	1863	932	1.37575E+000	4.11049E-001	0.00000E+000	1.37735E+000	-1.00721E-004	12	...........	-327.56
	1872	936.5	1.36679E+000	3.95067E-001	0.00000E+000	1.36835E+000	-1.04155E-004	12	...........	-327.56
	1881	941	1.35779E+000	3.75159E-001	0.00000E+000	1.35935E+000	-1.04155E-004	12	...........	-327.56
	1890	945.5	1.34876E+000	3.58336E-001	0.00000E+000	1.35035E+000	-1.05155E-004	12	...........	-327.56
	1899	950	1.33985E+000	3.41100E-001	0.00000E+000	1.34135E+000	-9.92548E-005	12	...........	-327.56
	1908	954.5	1.33085E+000	3.26963E-001	0.00000E+000	1.33235E+000	-1.03888E-004	12	...........	-327.56
	1917	959	1.32184E+000	3.10662E-001	0.00000E+000	1.32335E+000	-1.01421E-004	12	...........	-327.56
	1926	963.5	1.31293E+000	2.91882E-001	0.00000E+000	1.31435E+000	-1.05155E-004	12	...........	-327.56
	1935	968	1.30393E+000	2.74780E-001	0.00000E+000	1.30535E+000	-1.04388E-004	12	...........	-327.56
	1944	972.5	1.29487E+000	2.57991E-001	0.00000E+000	1.29635E+000	-1.01888E-004	12	...........	-327.56
	1953	977	1.28595E+000	2.41991E-001	0.00000E+000	1.28735E+000	-1.00421E-004	12	...........	-327.56
	1962	981.5	1.27673E+000	2.24948E-001	0.00000E+000	1.27835E+000	-1.04288E-004	11	...........	-327.56
	1971	986	1.26768E+000	2.08113E-001	0.00000E+000	1.26935E+000	-9.72214E-005	11	...........	-327.56
	1980	990.5	1.25879E+000	1.92343E-001	0.00000E+000	1.26035E+000	-1.02288E-004	11	...........	-327.56
	1989	995	1.24981E+000	1.76473E-001	0.00000E+000	1.25135E+000	-9.80548E-005	11	...........	-327.56
	1998	999.5	1.24086E+000	1.61635E-001	0.00000E+000	1.24235E+000	-9.97548E-005	11	...........	-327.56
	2007	1004	1.23191E+000	1.47489E-001	0.00000E+000	1.23335E+000	-9.57214E-005	11	...........	-327.56
	2016	1008.5	1.22288E+000	1.33750E-001	0.00000E+000	1.22435E+000	-1.00121E-004	11	...........	-327.56
	2025	1013	1.21395E+000	1.21971E-001	0.00000E+000	1.21535E+000	-1.02888E-004	11	...........	-327.56
	2034	1017.5	1.20497E+000	1.10266E-001	0.00000E+000	1.20635E+000	-1.02021E-004	11	...........	-327.56
	2043	1022	1.19595E+000	9.93691E-002	0.00000E+000	1.19735E+000	-9.86881E-005	11	...........	-327.56
	2052	1026.5	1.18705E+000	8.95880E-002	0.00000E+000	1.18835E+000	-9.84548E-005	11	...........	-327.56
	2061	1031	1.17800E+000	8.20014E-002	0.00000E+000	1.17935E+000	-1.00788E-004	11	...........	-327.56
	2070	1035.5	1.16900E+000	7.39664E-002	0.00000E+000	1.17035E+000	-1.04188E-004	11	...........	-327.56
	2079	1040	1.16009E+000	6.62550E-002	0.00000E+000	1.16135E+000	-1.05188E-004	11	...........	-327.56
	2088	1044.5	1.15106E+000	5.98510E-002	0.00000E+000	1.15235E+000	-1.03255E-004	11	...........	-327.56
	2097	1049	1.14204E+000	5.38998E-002	0.00000E+000	1.14335E+000	-9.97214E-005	11	...........	-327.56
	2106	1053.5	1.13313E+000	4.86447E-002	0.00000E+000	1.13435E+000	-1.01555E-004	11	...........	-327.56
	2115	1058	1.12416E+000	4.37105E-002	0.00000E+000	1.12535E+000	-1.04555E-004	11	...........	-327.56
	2124	1062.5	1.11514E+000	3.88317E-002	0.00000E+000	1.11635E+000	-1.04155E-004	11	...........	-327.56
	2133	1067	1.10622E+000	3.41245E-002	0.00000E+000	1.10735E+000	-1.01755E-004	11	...........	-327.56
	2142	1071.5	1.09716E+000	3.02900E-002	0.00000E+000	1.09835E+000	-1.03188E-004	11	...........	-327.56
	2151	1076	1.08817E+000	2.65655E-002	0.00000E+000	1.08935E+000	-1.00788E-004	11	...........	-327.56
	2160	1080.5	1.07898E+000	2.37686E-002	0.00000E+000	1.08035E+000	-9.71548E-005	10	...........	-327.56
	2169	1085	1.06997E+000	2.10925E-002	0.00000E+000	1.07135E+000	-1.01521E-004	10	...........	-327.56
	2178	1089.5	1.06106E+000	1.93311E-002	0.00000E+000	1.06235E+000	-1.00788E-004	10	...........	-327.56
	2187	1094	1.05206E+000	1.78621E-002	0.00000E+000	1.05335E+000	-9.93548E-005	10	...........	-327.56
	2196	1098.5	1.04309E+000	1.66839E-002	0.00000E+000	1.04435E+000	-9.95214E-005	10	...........	-327.56
	2205	1103	1.03412E+000	1.56848E-002	0.00000E+000	1.03535E+000	-9.60214E-005	10	...........	-327.56
	2214	1107.5	1.02510E+000	1.48793E-002	0.00000E+000	1.02635E+000	-1.00521E-004	10	...........	-327.56
	2223	1112	1.01609E+000	1.43028E-002	0.00000E+000	1.01735E+000	-1.02921E-004	10	...........	-327.56
	2232	1116.5	1.00718E+000	1.37976E-002	0.00000E+000	1.00835E+000	-1.02855E-004	10	...........	-327.56
	2241	1121	9.98148E-001	1.33864E-002	0.00000E+000	9.99350E-001	-1.02021E-004	10	...........	-327.56
	2250	1125.5	9.89136E-001	1.30485E-002	0.00000E+000	9.90350E-001	-1.02288E-004	10	...........	-327.56
	2259	1130	9.80208E-001	1.26930E-002	0.00000E+000	9.81350E-001	-1.00521E-004	10	...........	-327.56
	2268	1134.5	9.71164E-001	1.24675E-002	0.00000E+000	9.72350E-001	-1.02855E-004	10	...........	-327.56
	2277	1139	9.62163E-001	1.22344E-002	0.00000E+000	9.63350E-001	-9.92881E-005	10	...........	-327.56
	2286	1143.5	9.53221E-001	1.20049E-002	0.00000E+000	9.54350E-001	-1.02021E-004	10	...........	-327.56
	2295	1148	9.44209E-001	1.18319E-002	0.00000E+000	9.45350E-001	-1.00288E-004	10	...........	-327.56
	2304	1152.5	9.35158E-001	1.14890E-002	0.00000E+000	9.36350E-001	-1.01588E-004	10	...........	-327.56
	2313	1157	9.26285E-001	1.12998E-002	0.00000E+000	9.27350E-001	-1.03755E-004	10	...........	-327.56
	2322	1161.5	9.17245E-001	1.12048E-002	0.00000E+000	9.18350E-001	-1.03421E-004	10	...........	-327.56
	2331	1166	9.08297E-001	1.11207E-002	0.00000E+000	9.09350E-001	-9.74214E-005	10	...........	-327.56
	2340	1170.5	8.99335E-001	1.09207E-002	0.00000E+000	9.00350E-001	-1.03721E-004	10	...........	-327.56
	2349	1175	8.90279E-001	1.07879E-002	0.00000E+000	8.91350E-001	-9.88214E-005	10	...........	-327.56
	2358	1179.5	8.81336E-001	1.06711E-002	0.00000E+000	8.82350E-001	-1.01255E-004	10	...........	-327.56
	2367	1184	8.72333E-001	1.05287E-002	0.00000E+000	8.73350E-001	-1.02388E-004	10	...........	-327.56
	2376	1188.5	8.63298E-001	1.05172E-002	0.00000E+000	8.64350E-001	-1.03088E-004	10	...........	-327.56
	2385	1193	8.54352E-001	1.04387E-002	0.00000E+000	8.55350E-001	-9.72548E-005	10	...........	-327.56
	2394	1197.5	8.45345E-001	1.02822E-002	0.00000E+000	8.46350E-001	-9.94548E-005	10	...........	-327.56
	2403	1202	8.36312E-001	1.02633E-002	0.00000E+000	8.37350E-001	-1.04788E-004	10	...........	-327.56
	2412	1206.5	8.27376E-001	1.02294E-002	0.00000E+000	8.28350E-001	-1.03155E-004	10	...........	-327.56
	2421	1211	8.18369E-001	1.02973E-002	0.00000E+000	8.19350E-001	-9.97548E-005	10	...........	-327.56
	2430	1215.5	8.09415E-001	1.02294E-002	0.00000E+000	8.10350E-001	-1.03355E-004	10	...........	-327.56
	2439	1220	8.00437E-001	1.03655E-002	0.00000E+000	8.01350E-001	-1.00855E-004	10	...........	-327.56
	2448	1224.5	7.91405E-001	1.03011E-002	0.00000E+000	7.92350E-001	-1.05521E-004	10	...........	-327.56
	2457	1229	7.82345E-001	1.05061E-002	0.00000E+000	7.83350E-001	-1.03355E-004	10	...........	-327.56
	2466	1233.5	7.73448E-001	1.05744E-002	0.00000E+000	7.74350E-001	-1.00321E-004	10	...........	-327.56
	2475	1238	7.64399E-001	1.06578E-002	0.00000E+000	7.65350E-001	-1.04121E-004	10	...........	-327.56
	2484	1242.5	7.55385E-001	1.07464E-002	0.00000E+000	7.56350E-001	-1.01688E-004	10	...........	-327.56
	2493	1247	7.46452E-001	1.07992E-002	0.00000E+000	7.47350E-001	-1.03121E-004	10	...........	-327.56
	2502	1251.5	7.37479E-001	1.08386E-002	0.00000E+000	7.38350E-001	-1.02188E-004	10	...........	-327.56
	2511	1256	7.28486E-001	1.07967E-002	0.00000E+000	7.29350E-001	-1.02121E-004	10	...........	-327.56
	2520	1260.5	7.19460E-001	1.06728E-002	0.00000E+000	7.20350E-001	-1.01021E-004	10	...........	-327.56
	2529	1265	7.10452E-001	1.06958E-002	0.00000E+000	7.11350E-001	-9.71214E-005	10	...........	-327.56
	2538	1269.5	7.01533E-001	1.04886E-002	0.00000E+000	7.02350E-001	-9.81214E-005	10	...........	-327.56
	2547	1274	6.92534E-001	1.02490E-002	0.00000E+000	6.93350E-001	-1.00521E-004	10	...........	-327.56
	2556	1278.5	6.83490E-001	1.00038E-002	0.00000E+000	6.84350E-001	-1.02021E-004	10	...........	-327.56
	2565	1283	6.74569E-001	9.79453E-003	0.00000E+000	6.75350E-001	-1.01621E-004	10	...........	-327.56
	2574	1287.5	6.65539E-001	9.74549E-003	0.00000E+000	6.66350E-001	-1.02321E-004	10	...........	-327.56
	2583	1292	6.56525E-001	9.68090E-003	0.00000E+000	6.57350E-001	-1.00055E-004	10	...........	-327.56
	2592	1296.5	6.47578E-001	9.64573E-003	0.00000E+000	6.48350E-001	-9.85548E-005	10	...........	-327.56
	2601	1301	6.38550E-001	9.55157E-003	0.00000E+000	6.39350E-001	-1.01588E-004	10	...........	-327.56
	2610	1305.5	6.29503E-001	9.54788E-003	0.00000E+000	6.30350E-001	-1.02955E-004	10	...........	-327.56
	2619	1310	6.20604E-001	9.46662E-003	0.00000E+000	6.21350E-001	-9.69881E-005	10	...........	-327.56
	2628	1314.5	6.11574E-001	9.21014E-003	0.00000E+000	6.12350E-001	-1.00488E-004	10	...........	-327.56
	2637	1319	6.02529E-001	9.25216E-003	0.00000E+000	6.03350E-001	-1.02955E-004	10	...........	-327.56
	2646	1323.5	5.93628E-001	9.08368E-003	0.00000E+000	5.94350E-001	-1.03521E-004	10	...........	-327.56
	2655	1328	5.84594E-001	8.99885E-003	0.00000E+000	5.85350E-001	-9.86214E-005	10	...........	-327.56
	2664	1332.5	5.75637E-001	8.73964E-003	0.00000E+000	5.76350E-001	-1.00255E-004	10	...........	-327.56
	2673	1337	5.66666E-001	8.49504E-003	0.00000E+000	5.67350E-001	-1.02288E-004	10	...........	-327.56
	2682	1341.5	5.57615E-001	8.61250E-003	0.00000E+000	5.58350E-001	-1.01021E-004	10	...........	-327.56
	2691	1346	5.48691E-001	8.44457E-003	0.00000E+000	5.49350E-001	-9.93548E-005	10	...........	-327.56
	2700	1350.5	5.39666E-001	8.29921E-003	0.00000E+000	5.40350E-001	-1.03355E-004	10	...........	-327.56
	2709	1355	5.30627E-001	8.02269E-003	0.00000E+000	5.31350E-001	-1.04921E-004	10	...........	-327.56
	2718	1359.5	5.21695E-001	7.75427E-003	0.00000E+000	5.22350E-001	-1.03055E-004	10	...........	-327.56
	2727	1364	5.12673E-001	7.24483E-003	0.00000E+000	5.13350E-001	-9.64548E-005	10	...........	-327.56
	2736	1368.5	5.03711E-001	7.17550E-003	0.00000E+000	5.04350E-001	-1.02655E-004	10	...........	-327.56
	2745	1373	4.94766E-001	7.21507E-003	0.00000E+000	4.95350E-001	-1.02688E-004	10	...........	-327.56
	2754	1377.5	4.85730E-001	6.90803E-003	0.00000E+000	4.86350E-001	-9.76548E-005	10	...........	-327.56
	2763	1382	4.76736E-001	6.83970E-003	0.00000E+000	4.77350E-001	-1.03021E-004	10	...........	-327.56
	2772	1386.5	4.67794E-001	6.72160E-003	0.00000E+000	4.68350E-001	-9.93214E-005	10	...........	-327.56
	2781	1391	4.58751E-001	6.50194E-003	0.00000E+000	4.59350E-001	-1.00821E-004	10	...........	-327.56
	2790	1395.5	4.49716E-001	6.22641E-003	0.00000E+000	4.50350E-001	-1.05455E-004	10	...........	-327.56
	2799	1400	4.40812E-001	5.93019E-003	0.00000E+000	4.41350E-001	-1.05021E-004	10	...........	-327.56
	2808	1404.5	4.31809E-001	5.54629E-003	0.00000E+000	4.32350E-001	-1.02821E-004	10	...........	-327.56
	2817	1409	4.22742E-001	5.14646E-003	0.00000E+000	4.23350E-001	-1.00621E-004	10	...........	-327.56
	2826	1413.5	4.13840E-001	4.96830E-003	0.00000E+000	4.14350E-001	-1.03821E-004	10	...........	-327.56
	2835	1418	4.04783E-001	4.40403E-003	0.00000E+000	4.05350E-001	-1.03555E-004	10	...........	-327.56
	2844	1422.5	3.95864E-001	4.06219E-003	0.00000E+000	3.96350E-001	-9.78548E-005	10	...........	-327.56
	2853	1427	3.86859E-001	3.74932E-003	0.00000E+000	3.87350E-001	-1.01655E-004	10	...........	-327.56
	2862	1431.5	3.77826E-001	3.82146E-003	0.00000E+000	3.78350E-001	-1.04488E-004	10	...........	-327.56
	2871	1436	3.68890E-001	3.26510E-003	0.00000E+000	3.69350E-001	-1.04355E-004	10	...........	-327.56
	2880	1440.5	3.59906E-001	3.22569E-003	0.00000E+000	3.60350E-001	-1.05688E-004	10	...........	-327.56
	2889	1445	3.50857E-001	2.65193E-003	0.00000E+000	3.51350E-001	-1.04188E-004	10	...........	-327.56
	2898	1449.5	3.41696E-001	1.98738E-003	0.00000E+000	3.42350E-001	-1.02855E-004	9	...........	-327.56
	2907	1454	3.32699E-001	1.94423E-003	0.00000E+000	3.33350E-001	-1.04221E-004	9	...........	-327.56
	2916	1458.5	3.23718E-001	1.38677E-003	0.00000E+000	3.24350E-001	-1.05021E-004	9	...........	-327.56
	2925	1463	3.14794E-001	1.30076E-003	0.00000E+000	3.15350E-001	-1.03488E-004	9	...........	-327.56
	2934	1467.5	3.05888E-001	6.23569E-004	0.00000E+000	3.06350E-001	-1.00155E-004	9	...........	-327.56
	2943	1472	2.97042E-001	-9.07033E-006	0.00000E+000	2.97350E-001	-1.00555E-004	7	...........	-327.56
	2952	1476.5	2.88410E-001	-2.85404E-005	0.00000E+000	2.88350E-001	-8.14214E-005	7	...........	-327.56
	2961	1481	2.79081E-001	-7.37564E-004	0.00000E+000	2.79350E-001	-1.02555E-004	9	...........	-327.56
	2970	1485.5	2.70041E-001	-7.58984E-004	0.00000E+000	2.70350E-001	-1.05988E-004	9	...........	-327.56
	2979	1490	2.61230E-001	-1.49853E-003	0.00000E+000	2.61350E-001	-1.03888E-004	9	...........	-327.56
	2988	1494.5	2.52173E-001	-1.33205E-003	0.00000E+000	2.52350E-001	-1.04855E-004	9	...........	-327.56
	2997	1499	2.43199E-001	-1.32817E-003	0.00000E+000	2.43350E-001	-1.03055E-004	9	...........	-327.56
	3006	1503.5	2.34237E-001	-1.44916E-003	0.00000E+000	2.34350E-001	-1.00288E-004	9	...........	-327.56
	3015	1508	2.25177E-001	-1.37119E-003	0.00000E+000	2.25350E-001	-1.01288E-004	9	...........	-327.56
	3024	1512.5	2.16254E-001	-1.42624E-003	0.00000E+000	2.16350E-001	-9.79214E-005	9	...........	-327.56
	3033	1517	2.07346E-001	-2.24274E-003	0.00000E+000	2.07350E-001	-9.59214E-005	9	...........	-327.56
	3042	1521.5	1.98317E-001	-1.82365E-003	0.00000E+000	1.98350E-001	-1.00921E-004	9	...........	-327.56
	3051	1526	1.89400E-001	-2.21278E-003	0.00000E+000	1.89350E-001	-9.50214E-005	9	...........	-327.56
	3060	1530.5	1.80352E-001	-2.19473E-003	0.00000E+000	1.80350E-001	-9.90548E-005	9	...........	-327.56
	3069	1535	1.71374E-001	-2.45814E-003	0.00000E+000	1.71350E-001	-1.02155E-004	9	...........	-327.56
	3078	1539.5	1.62460E-001	-2.71620E-003	0.00000E+000	1.62350E-001	-8.60548E-005	9	...........	-327.56
	3087	1544	1.53121E-001	-3.05821E-003	0.00000E+000	1.53350E-001	-1.02188E-004	10	...........	-327.56
	3096	1548.5	1.44119E-001	-3.45987E-003	0.00000E+000	1.44350E-001	-1.00855E-004	10	...........	-327.56
	3105	1553	1.35188E-001	-3.77409E-003	0.00000E+000	1.35350E-001	-1.02188E-004	10	...........	-327.56
	3114	1557.5	1.26172E-001	-4.10235E-003	0.00000E+000	1.26350E-001	-1.02755E-004	10	...........	-327.56
	3123	1562	1.17128E-001	-4.54328E-003	0.00000E+000	1.17350E-001	-1.04255E-004	10	...........	-327.56
	3132	1566.5	1.08223E-001	-4.82353E-003	0.00000E+000	1.08350E-001	-1.03555E-004	10	...........	-327.56
	3141	1571	9.92195E-002	-5.20467E-003	0.00000E+000	9.93500E-002	-1.03321E-004	10	...........	-327.56
	3150	1575.5	9.01936E-002	-5.55381E-003	0.00000E+000	9.03500E-002	-1.02788E-004	10	...........	-327.56
	3159	1580	8.12849E-002	-5.69968E-003	0.00000E+000	8.13500E-002	-1.02588E-004	10	...........	-327.56
	3168	1584.5	7.22494E-002	-6.01905E-003	0.00000E+000	7.23500E-002	-1.03288E-004	10	...........	-327.56
	3177	1589	6.33038E-002	-6.23962E-003	0.00000E+000	6.33500E-002	-1.06121E-004	10	...........	-327.56
	3186	1593.5	5.43226E-002	-6.49645E-003	0.00000E+000	5.43500E-002	-1.00788E-004	10	...........	-327.56
	3195	1598	4.52820E-002	-6.74185E-003	0.00000E+000	4.53500E-002	-1.02888E-004	10	...........	-327.56
	3204	1602.5	3.63294E-002	-7.07520E-003	0.00000E+000	3.63500E-002	-1.00988E-004	10	...........	-327.56
	3213	1607	2.73342E-002	-7.23599E-003	0.00000E+000	2.73500E-002	-1.04055E-004	10	...........	-327.56
	3222	1611.5	1.82932E-002	-7.28824E-003	0.00000E+000	1.83500E-002	-1.03055E-004	10	...........	-327.56
	3231	1616	9.35139E-003	-7.43226E-003	0.00000E+000	9.35000E-003	-9.97881E-005	10	...........	-327.56
	3240	1620.5	3.11170E-004	-7.56438E-003	0.00000E+000	3.50028E-004	-1.03255E-004	10	...........	-327.56
	3249	1625	-8.49193E-003	-7.74260E-003	0.00000E+000	-8.64998E-003	-1.04321E-004	10	...........	-327.56
	3258	1629.5	-1.73963E-002	-7.95416E-003	0.00000E+000	-1.76500E-002	-1.05521E-004	10	...........	-327.56
	3267	1634	-2.64477E-002	-8.10809E-003	0.00000E+000	-2.66500E-002	-1.03488E-004	10	...........	-327.56
	3276	1638.5	-3.54336E-002	-8.29115E-003	0.00000E+000	-3.56500E-002	-1.02555E-004	10	...........	-327.56
	3285	1643	-4.43807E-002	-8.40517E-003	0.00000E+000	-4.46500E-002	-1.00055E-004	10	...........	-327.56
	3294	1647.5	-5.34108E-002	-8.67037E-003	0.00000E+000	-5.36500E-002	-1.03721E-004	10	...........	-327.56
	3303	1652	-6.24568E-002	-8.90437E-003	0.00000E+000	-6.26500E-002	-1.07188E-004	10	...........	-327.56
	3312	1656.5	-7.13472E-002	-9.12316E-003	0.00000E+000	-7.16500E-002	-1.02755E-004	10	...........	-327.56
	3321	1661	-8.04264E-002	-9.23173E-003	0.00000E+000	-8.06500E-002	-1.02421E-004	10	...........	-327.56
	3330	1665.5	-8.94230E-002	-9.34229E-003	0.00000E+000	-8.96500E-002	-1.00421E-004	10	...........	-327.56
	3339	1670	-9.83470E-002	-9.38288E-003	0.00000E+000	-9.86500E-002	-1.06055E-004	10	...........	-327.56
	3348	1674.5	-1.07298E-001	-9.30183E-003	0.00000E+000	-1.07650E-001	-1.02321E-004	10	...........	-327.56
[...]
	10763	5382	5.22356E-001	5.34669E-002	0.00000E+000	5.23000E-001	-1.02788E-004	11	...........	-327.56
	10769	5385	5.28290E-001	5.15846E-002	0.00000E+000	5.29000E-001	-1.02688E-004	11	...........	-327.56
	10775	5388	5.34333E-001	5.14869E-002	0.00000E+000	5.35000E-001	-1.07488E-004	11	...........	-327.56
	10781	5391	5.40341E-001	5.00492E-002	0.00000E+000	5.41000E-001	-1.03721E-004	11	...........	-327.56
	10787	5394	5.46356E-001	4.92934E-002	0.00000E+000	5.47000E-001	-1.06955E-004	11	...........	-327.56
	10793	5397	5.52276E-001	4.80635E-002	0.00000E+000	5.53000E-001	-1.06488E-004	11	...........	-327.56
	10799	5400	5.58333E-001	4.79536E-002	0.00000E+000	5.59000E-001	-1.07655E-004	11	...........	-327.56
	10805	5403	5.64318E-001	4.76631E-002	0.00000E+000	5.65000E-001	-1.07988E-004	11	...........	-327.56
	10811	5406	5.70337E-001	4.64824E-002	0.00000E+000	5.71000E-001	-1.01021E-004	11	...........	-327.56
	10817	5409	5.76244E-001	4.63121E-002	0.00000E+000	5.77000E-001	-1.05355E-004	11	...........	-327.56
	10823	5412	5.82324E-001	4.58475E-002	0.00000E+000	5.83000E-001	-1.04421E-004	11	...........	-327.56
	10829	5415	5.88286E-001	4.60496E-002	0.00000E+000	5.89000E-001	-1.05388E-004	11	...........	-327.56
	10835	5418	5.94340E-001	4.51189E-002	0.00000E+000	5.95000E-001	-1.02988E-004	11	...........	-327.56
	10841	5421	6.00332E-001	4.46834E-002	0.00000E+000	6.01000E-001	-1.02488E-004	11	...........	-327.56
	10847	5424	6.06321E-001	4.43588E-002	0.00000E+000	6.07000E-001	-1.09188E-004	11	...........	-327.56
	10853	5427	6.12275E-001	4.41750E-002	0.00000E+000	6.13000E-001	-1.08188E-004	11	...........	-327.56
	10859	5430	6.18291E-001	4.41406E-002	0.00000E+000	6.19000E-001	-1.00188E-004	11	...........	-327.56
	10865	5433	6.24305E-001	4.39863E-002	0.00000E+000	6.25000E-001	-1.08288E-004	11	...........	-327.56
	10871	5436	6.30305E-001	4.30438E-002	0.00000E+000	6.31000E-001	-1.09455E-004	11	...........	-327.56
	10877	5439	6.36243E-001	4.28824E-002	0.00000E+000	6.37000E-001	-1.05121E-004	11	...........	-327.56
	10883	5442	6.42273E-001	4.27717E-002	0.00000E+000	6.43000E-001	-1.01721E-004	11	...........	-327.56
	10889	5445	6.48291E-001	4.27896E-002	0.00000E+000	6.49000E-001	-1.07655E-004	11	...........	-327.56
	10895	5448	6.54289E-001	4.19653E-002	0.00000E+000	6.55000E-001	-1.10488E-004	11	...........	-327.56
	10901	5451	6.60238E-001	4.16793E-002	0.00000E+000	6.61000E-001	-1.06321E-004	11	...........	-327.56
	10907	5454	6.66247E-001	4.19193E-002	0.00000E+000	6.67000E-001	-1.03888E-004	11	...........	-327.56
	10913	5457	6.72280E-001	4.18912E-002	0.00000E+000	6.73000E-001	-1.02621E-004	11	...........	-327.56
	10919	5460	6.78274E-001	4.13016E-002	0.00000E+000	6.79000E-001	-1.06521E-004	11	...........	-327.56
	10925	5463	6.84208E-001	4.11067E-002	0.00000E+000	6.85000E-001	-1.04055E-004	11	...........	-327.56
	10931	5466	6.90219E-001	4.11723E-002	0.00000E+000	6.91000E-001	-1.03955E-004	11	...........	-327.56
	10937	5469	6.96258E-001	4.10087E-002	0.00000E+000	6.97000E-001	-1.04121E-004	11	...........	-327.56
	10943	5472	7.02275E-001	4.10383E-002	0.00000E+000	7.03000E-001	-1.04355E-004	11	...........	-327.56
	10949	5475	7.08188E-001	4.08194E-002	0.00000E+000	7.09000E-001	-1.05721E-004	11	...........	-327.56
	10955	5478	7.14211E-001	4.05397E-002	0.00000E+000	7.15000E-001	-1.05921E-004	11	...........	-327.56
	10961	5481	7.20193E-001	4.03890E-002	0.00000E+000	7.21000E-001	-1.05321E-004	11	...........	-327.56
	10967	5484	7.26218E-001	4.03957E-002	0.00000E+000	7.27000E-001	-1.04188E-004	11	...........	-327.56
	10973	5487	7.32121E-001	4.02417E-002	0.00000E+000	7.33000E-001	-1.05521E-004	11	...........	-327.56
	10979	5490	7.38151E-001	4.03476E-002	0.00000E+000	7.39000E-001	-1.03588E-004	11	...........	-327.56
	10985	5493	7.44179E-001	4.06008E-002	0.00000E+000	7.45000E-001	-1.05255E-004	11	...........	-327.56
	10991	5496	7.50193E-001	4.02852E-002	0.00000E+000	7.51000E-001	-1.02421E-004	11	...........	-327.56
	10997	5499	7.56077E-001	3.98881E-002	0.00000E+000	7.57000E-001	-1.08988E-004	11	...........	-327.56
	11003	5502	7.62129E-001	3.99176E-002	0.00000E+000	7.63000E-001	-1.03321E-004	11	...........	-327.56
	11009	5505	7.68149E-001	3.96784E-002	0.00000E+000	7.69000E-001	-1.01888E-004	11	...........	-327.56
	11015	5508	7.74181E-001	3.95670E-002	0.00000E+000	7.75000E-001	-1.02121E-004	11	...........	-327.56
	11021	5511	7.80157E-001	3.93980E-002	0.00000E+000	7.81000E-001	-1.09155E-004	11	...........	-327.56
	11027	5514	7.86103E-001	3.93795E-002	0.00000E+000	7.87000E-001	-1.03255E-004	11	...........	-327.56
	11033	5517	7.92116E-001	3.92348E-002	0.00000E+000	7.93000E-001	-1.08721E-004	11	...........	-327.56
	11039	5520	7.98149E-001	3.88606E-002	0.00000E+000	7.99000E-001	-1.05455E-004	11	...........	-327.56
	11045	5523	8.04141E-001	3.86732E-002	0.00000E+000	8.05000E-001	-1.06455E-004	11	...........	-327.56
	11051	5526	8.10093E-001	3.86029E-002	0.00000E+000	8.11000E-001	-1.04155E-004	11	...........	-327.56
	11057	5529	8.16096E-001	3.83631E-002	0.00000E+000	8.17000E-001	-1.07121E-004	11	...........	-327.56
	11063	5532	8.22097E-001	3.81566E-002	0.00000E+000	8.23000E-001	-1.06021E-004	11	...........	-327.56
	11069	5535	8.28092E-001	3.79699E-002	0.00000E+000	8.29000E-001	-1.09921E-004	11	...........	-327.56
	11075	5538	8.33998E-001	3.78065E-002	0.00000E+000	8.35000E-001	-1.07588E-004	11	...........	-327.56
	11081	5541	8.40062E-001	3.74791E-002	0.00000E+000	8.41000E-001	-1.07255E-004	11	...........	-327.56
	11087	5544	8.46054E-001	3.70273E-002	0.00000E+000	8.47000E-001	-1.05688E-004	11	...........	-327.56
	11093	5547	8.52083E-001	3.66862E-002	0.00000E+000	8.53000E-001	-1.09588E-004	11	...........	-327.56
	11099	5550	8.57987E-001	3.64370E-002	0.00000E+000	8.59000E-001	-1.02755E-004	11	...........	-327.56
	11105	5553	8.64019E-001	3.61463E-002	0.00000E+000	8.65000E-001	-1.05855E-004	11	...........	-327.56
	11111	5556	8.70033E-001	3.58272E-002	0.00000E+000	8.71000E-001	-1.06288E-004	11	...........	-327.56
	11117	5559	8.76071E-001	3.54769E-002	0.00000E+000	8.77000E-001	-1.07221E-004	11	...........	-327.56
	11123	5562	8.82075E-001	3.51380E-002	0.00000E+000	8.83000E-001	-1.02621E-004	11	...........	-327.56
	11129	5565	8.87984E-001	3.48082E-002	0.00000E+000	8.89000E-001	-1.06888E-004	11	...........	-327.56
	11135	5568	8.94007E-001	3.45341E-002	0.00000E+000	8.95000E-001	-1.05888E-004	11	...........	-327.56
	11141	5571	9.00044E-001	3.41177E-002	0.00000E+000	9.01000E-001	-1.08188E-004	11	...........	-327.56
	11147	5574	9.06056E-001	3.38048E-002	0.00000E+000	9.07000E-001	-1.07121E-004	11	...........	-327.56
	11153	5577	9.11963E-001	3.33971E-002	0.00000E+000	9.13000E-001	-1.05655E-004	11	...........	-327.56
	11159	5580	9.17993E-001	3.31626E-002	0.00000E+000	9.19000E-001	-1.07921E-004	11	...........	-327.56
	11165	5583	9.23982E-001	3.27982E-002	0.00000E+000	9.25000E-001	-1.04221E-004	11	...........	-327.56
	11171	5586	9.30000E-001	3.24702E-002	0.00000E+000	9.31000E-001	-1.06988E-004	11	...........	-327.56
	11177	5589	9.35940E-001	3.21621E-002	0.00000E+000	9.37000E-001	-1.05855E-004	11	...........	-327.56
	11183	5592	9.41932E-001	3.16836E-002	0.00000E+000	9.43000E-001	-1.07221E-004	11	...........	-327.56
	11189	5595	9.47961E-001	3.19277E-002	0.00000E+000	9.49000E-001	-9.89548E-005	11	...........	-327.56
	11195	5598	9.53992E-001	3.16191E-002	0.00000E+000	9.55000E-001	-1.08421E-004	11	...........	-327.56
	11201	5601	9.59969E-001	3.17775E-002	0.00000E+000	9.61000E-001	-1.04921E-004	11	...........	-327.56
	11207	5604	9.65921E-001	3.18438E-002	0.00000E+000	9.67000E-001	-1.06455E-004	11	...........	-327.56
	11213	5607	9.71941E-001	3.19036E-002	0.00000E+000	9.73000E-001	-1.05655E-004	11	...........	-327.56
	11219	5610	9.77967E-001	3.19894E-002	0.00000E+000	9.79000E-001	-1.04855E-004	11	...........	-327.56
	11225	5613	9.83973E-001	3.20924E-002	0.00000E+000	9.85000E-001	-1.07921E-004	11	...........	-327.56
	11231	5616	9.89903E-001	3.21653E-002	0.00000E+000	9.91000E-001	-1.06255E-004	11	...........	-327.56
	11237	5619	9.95910E-001	3.25935E-002	0.00000E+000	9.97000E-001	-1.07355E-004	11	...........	-327.56
	11243	5622	1.00195E+000	3.31247E-002	0.00000E+000	1.00300E+000	-1.07355E-004	11	...........	-327.56
	11249	5625	1.00795E+000	3.36983E-002	0.00000E+000	1.00900E+000	-1.06155E-004	11	...........	-327.56
	11255	5628	1.01386E+000	3.44520E-002	0.00000E+000	1.01500E+000	-1.07488E-004	11	...........	-327.56
	11261	5631	1.01988E+000	3.54330E-002	0.00000E+000	1.02100E+000	-1.05855E-004	11	...........	-327.56
	11267	5634	1.02591E+000	3.62151E-002	0.00000E+000	1.02700E+000	-1.03255E-004	11	...........	-327.56
	11273	5637	1.03191E+000	3.70473E-002	0.00000E+000	1.03300E+000	-1.05288E-004	11	...........	-327.56
	11279	5640	1.03782E+000	3.80256E-002	0.00000E+000	1.03900E+000	-1.07188E-004	11	...........	-327.56
	11285	5643	1.04384E+000	3.87531E-002	0.00000E+000	1.04500E+000	-1.00155E-004	11	...........	-327.56
	11291	5646	1.04985E+000	3.96745E-002	0.00000E+000	1.05100E+000	-1.03921E-004	11	...........	-327.56
	11297	5649	1.05591E+000	4.05538E-002	0.00000E+000	1.05700E+000	-1.06788E-004	11	...........	-327.56
	11303	5652	1.06185E+000	4.14141E-002	0.00000E+000	1.06300E+000	-1.03488E-004	11	...........	-327.56
	11309	5655	1.06783E+000	4.26111E-002	0.00000E+000	1.06900E+000	-1.05655E-004	11	...........	-327.56
	11315	5658	1.07383E+000	4.39834E-002	0.00000E+000	1.07500E+000	-1.08221E-004	11	...........	-327.56
	11321	5661	1.07989E+000	4.52181E-002	0.00000E+000	1.08100E+000	-1.07855E-004	11	...........	-327.56
	11327	5664	1.08585E+000	4.64059E-002	0.00000E+000	1.08700E+000	-1.05488E-004	11	...........	-327.56
	11333	5667	1.09180E+000	4.69942E-002	0.00000E+000	1.09300E+000	-1.03721E-004	11	...........	-327.56
	11339	5670	1.09782E+000	4.73615E-002	0.00000E+000	1.09900E+000	-1.02188E-004	11	...........	-327.56
	11345	5673	1.10387E+000	4.79354E-002	0.00000E+000	1.10500E+000	-1.06488E-004	11	...........	-327.56
	11351	5676	1.10984E+000	4.91930E-002	0.00000E+000	1.11100E+000	-1.06755E-004	11	...........	-327.56
	11357	5679	1.11578E+000	5.00550E-002	0.00000E+000	1.11700E+000	-1.05955E-004	11	...........	-327.56
	11363	5682	1.12180E+000	5.04791E-002	0.00000E+000	1.12300E+000	-1.07555E-004	11	...........	-327.56
	11369	5685	1.12779E+000	5.14996E-002	0.00000E+000	1.12900E+000	-1.06188E-004	11	...........	-327.56
	11375	5688	1.13378E+000	5.22912E-002	0.00000E+000	1.13500E+000	-1.06555E-004	11	...........	-327.56
	11381	5691	1.13970E+000	5.23085E-002	0.00000E+000	1.14100E+000	-1.07588E-004	11	...........	-327.56
	11387	5694	1.14573E+000	5.24144E-002	0.00000E+000	1.14700E+000	-1.03555E-004	11	...........	-327.56
	11393	5697	1.15174E+000	5.31493E-002	0.00000E+000	1.15300E+000	-1.04321E-004	11	...........	-327.56
	11399	5700	1.15778E+000	5.25570E-002	0.00000E+000	1.15900E+000	-1.04221E-004	11	...........	-327.56
	11405	5703	1.16379E+000	5.16881E-002	0.00000E+000	1.16500E+000	-1.05255E-004	11	...........	-327.56
	11411	5706	1.16971E+000	5.07244E-002	0.00000E+000	1.17100E+000	-1.07755E-004	11	...........	-327.56
	11417	5709	1.17574E+000	4.99368E-002	0.00000E+000	1.17700E+000	-1.04588E-004	11	...........	-327.56
	11423	5712	1.18176E+000	4.83261E-002	0.00000E+000	1.18300E+000	-1.05455E-004	11	...........	-327.56
	11429	5715	1.18776E+000	4.63154E-002	0.00000E+000	1.18900E+000	-1.04688E-004	11	...........	-327.56
	11435	5718	1.19367E+000	4.51195E-002	0.00000E+000	1.19500E+000	-1.05621E-004	11	...........	-327.56
	11441	5721	1.19971E+000	4.37709E-002	0.00000E+000	1.20100E+000	-1.05921E-004	11	...........	-327.56
	11447	5724	1.20574E+000	4.30894E-002	0.00000E+000	1.20700E+000	-1.12655E-004	11	...........	-327.56
	11453	5727	1.21178E+000	4.32837E-002	0.00000E+000	1.21300E+000	-1.06221E-004	11	...........	-327.56
	11459	5730	1.21761E+000	4.42180E-002	0.00000E+000	1.21900E+000	-1.07321E-004	11	...........	-327.56
	11465	5733	1.22367E+000	4.54741E-002	0.00000E+000	1.22500E+000	-1.06421E-004	11	...........	-327.56
	11471	5736	1.22969E+000	4.96389E-002	0.00000E+000	1.23100E+000	-1.08555E-004	11	...........	-327.56
	11477	5739	1.23572E+000	5.18911E-002	0.00000E+000	1.23700E+000	-1.06021E-004	11	...........	-327.56
	11483	5742	1.24167E+000	5.64100E-002	0.00000E+000	1.24300E+000	-1.08655E-004	11	...........	-327.56
	11489	5745	1.24762E+000	6.09957E-002	0.00000E+000	1.24900E+000	-1.05721E-004	11	...........	-327.56
	11495	5748	1.25364E+000	6.52446E-002	0.00000E+000	1.25500E+000	-1.09721E-004	11	...........	-327.56
	11501	5751	1.25966E+000	7.21350E-002	0.00000E+000	1.26100E+000	-1.04188E-004	11	...........	-327.56
	11507	5754	1.26565E+000	7.84790E-002	0.00000E+000	1.26700E+000	-1.05288E-004	11	...........	-327.56
	11513	5757	1.27157E+000	8.59891E-002	0.00000E+000	1.27300E+000	-1.01588E-004	11	...........	-327.56
	11519	5760	1.27758E+000	9.36502E-002	0.00000E+000	1.27900E+000	-1.04721E-004	11	...........	-327.56
	11525	5763	1.28360E+000	1.01668E-001	0.00000E+000	1.28500E+000	-1.06521E-004	11	...........	-327.56
	11531	5766	1.28957E+000	1.09569E-001	0.00000E+000	1.29100E+000	-1.06421E-004	11	...........	-327.56
	11537	5769	1.29550E+000	1.18281E-001	0.00000E+000	1.29700E+000	-1.03455E-004	11	...........	-327.56
	11543	5772	1.30150E+000	1.26624E-001	0.00000E+000	1.30300E+000	-1.08888E-004	11	...........	-327.56
	11549	5775	1.30751E+000	1.35253E-001	0.00000E+000	1.30900E+000	-1.00655E-004	11	...........	-327.56
	11555	5778	1.31352E+000	1.44712E-001	0.00000E+000	1.31500E+000	-1.05121E-004	11	...........	-327.56
	11561	5781	1.31939E+000	1.54373E-001	0.00000E+000	1.32100E+000	-1.08121E-004	11	...........	-327.56
	11567	5784	1.32542E+000	1.61666E-001	0.00000E+000	1.32700E+000	-9.93548E-005	11	...........	-327.56
	11573	5787	1.33139E+000	1.72939E-001	0.00000E+000	1.33300E+000	-1.00855E-004	11	...........	-327.56
	11579	5790	1.33740E+000	1.83770E-001	0.00000E+000	1.33900E+000	-1.00221E-004	11	...........	-327.56
	11585	5793	1.34335E+000	1.94999E-001	0.00000E+000	1.34500E+000	-1.04355E-004	11	...........	-327.56
	11591	5796	1.34928E+000	2.06514E-001	0.00000E+000	1.35100E+000	-1.01821E-004	11	...........	-327.56
	11597	5799	1.35527E+000	2.17827E-001	0.00000E+000	1.35700E+000	-1.05121E-004	11	...........	-327.56
	11603	5802	1.36130E+000	2.29024E-001	0.00000E+000	1.36300E+000	-1.03688E-004	11	...........	-327.56
	11609	5805	1.36726E+000	2.39926E-001	0.00000E+000	1.36900E+000	-1.00921E-004	11	...........	-327.56
	11615	5808	1.37319E+000	2.51001E-001	0.00000E+000	1.37500E+000	-1.01988E-004	11	...........	-327.56
	11621	5811	1.37919E+000	2.62428E-001	0.00000E+000	1.38100E+000	-1.00021E-004	11	...........	-327.56
	11627	5814	1.38551E+000	2.74429E-001	0.00000E+000	1.38700E+000	-1.08188E-004	12	...........	-327.56
	11633	5817	1.39148E+000	2.85407E-001	0.00000E+000	1.39300E+000	-1.04688E-004	12	...........	-327.56
	11639	5820	1.39740E+000	2.96609E-001	0.00000E+000	1.39900E+000	-1.06421E-004	12	...........	-327.56
	11645	5823	1.40341E+000	3.06835E-001	0.00000E+000	1.40500E+000	-1.08755E-004	12	...........	-327.56
	11651	5826	1.40947E+000	3.17270E-001	0.00000E+000	1.41100E+000	-1.09288E-004	12	...........	-327.56
	11657	5829	1.41544E+000	3.30420E-001	0.00000E+000	1.41700E+000	-1.04355E-004	12	...........	-327.56
	11663	5832	1.42135E+000	3.42518E-001	0.00000E+000	1.42300E+000	-1.02155E-004	12	...........	-327.56
	11669	5835	1.42736E+000	3.53190E-001	0.00000E+000	1.42900E+000	-1.02888E-004	12	...........	-327.56
	11675	5838	1.43338E+000	3.65601E-001	0.00000E+000	1.43500E+000	-1.05688E-004	12	...........	-327.56
	11681	5841	1.43936E+000	3.77767E-001	0.00000E+000	1.44100E+000	-1.10788E-004	12	...........	-327.56
	11687	5844	1.44536E+000	3.90299E-001	0.00000E+000	1.44700E+000	-1.05588E-004	12	...........	-327.56
	11693	5847	1.45129E+000	4.02928E-001	0.00000E+000	1.45300E+000	-1.06421E-004	12	...........	-327.56
	11699	5850	1.45730E+000	4.16337E-001	0.00000E+000	1.45900E+000	-1.03421E-004	12	...........	-327.56
	11705	5853	1.46333E+000	4.30444E-001	0.00000E+000	1.46500E+000	-1.06955E-004	12	...........	-327.56
	11711	5856	1.46932E+000	4.43595E-001	0.00000E+000	1.47100E+000	-1.04121E-004	12	...........	-327.56
	11717	5859	1.47521E+000	4.56157E-001	0.00000E+000	1.47700E+000	-1.03055E-004	12	...........	-327.56
	11723	5862	1.48124E+000	4.67815E-001	0.00000E+000	1.48300E+000	-1.04188E-004	12	...........	-327.56
	11729	5865	1.48726E+000	4.85361E-001	0.00000E+000	1.48900E+000	-1.08021E-004	12	...........	-327.56
	11735	5868	1.49326E+000	4.96632E-001	0.00000E+000	1.49500E+000	-1.02521E-004	12	...........	-327.56
	11741	5871	1.49915E+000	5.18082E-001	0.00000E+000	1.50100E+000	-1.05755E-004	12	...........	-327.56
	11747	5874	1.50517E+000	5.33121E-001	0.00000E+000	1.50700E+000	-1.09255E-004	12	...........	-327.56
	11753	5877	1.51118E+000	5.52105E-001	0.00000E+000	1.51300E+000	-1.00121E-004	12	...........	-327.56
	11759	5880	1.51721E+000	5.67097E-001	0.00000E+000	1.51900E+000	-1.02888E-004	12	...........	-327.56
	11765	5883	1.52318E+000	5.82139E-001	0.00000E+000	1.52500E+000	-1.03955E-004	12	...........	-327.56
	11771	5886	1.52913E+000	6.00434E-001	0.00000E+000	1.53100E+000	-1.03921E-004	12	...........	-327.56
	11777	5889	1.53511E+000	6.21787E-001	0.00000E+000	1.53700E+000	-1.05355E-004	12	...........	-327.56
	11783	5892	1.54110E+000	6.37854E-001	0.00000E+000	1.54300E+000	-1.05921E-004	12	...........	-327.56
	11789	5895	1.54709E+000	6.54012E-001	0.00000E+000	1.54900E+000	-1.04555E-004	12	...........	-327.56
	11795	5898	1.55301E+000	6.73992E-001	0.00000E+000	1.55500E+000	-1.07421E-004	12	...........	-327.56
	11801	5901	1.55903E+000	6.86055E-001	0.00000E+000	1.56100E+000	-1.02355E-004	12	...........	-327.56
	11807	5904	1.56506E+000	7.04746E-001	0.00000E+000	1.56700E+000	-1.06821E-004	12	...........	-327.56
	11813	5907	1.57105E+000	7.22440E-001	0.00000E+000	1.57300E+000	-9.99214E-005	12	...........	-327.56
	11819	5910	1.57696E+000	7.38372E-001	0.00000E+000	1.57900E+000	-1.07288E-004	12	...........	-327.56
	11825	5913	1.58297E+000	7.61667E-001	0.00000E+000	1.58500E+000	-1.02888E-004	12	...........	-327.56
	11831	5916	1.58898E+000	7.74258E-001	0.00000E+000	1.59100E+000	-1.06088E-004	12	...........	-327.56
	11837	5919	1.59498E+000	7.95499E-001	0.00000E+000	1.59700E+000	-1.02021E-004	12	...........	-327.56
	11843	5922	1.60085E+000	8.07761E-001	0.00000E+000	1.60300E+000	-1.08855E-004	12	...........	-327.56
	11849	5925	1.60689E+000	8.17918E-001	0.00000E+000	1.60900E+000	-9.94214E-005	12	...........	-327.56
	11855	5928	1.61289E+000	8.36003E-001	0.00000E+000	1.61500E+000	-1.05988E-004	12	...........	-327.56
	11861	5931	1.61893E+000	8.51472E-001	0.00000E+000	1.62100E+000	-1.03421E-004	12	...........	-327.56
	11867	5934	1.62489E+000	8.71749E-001	0.00000E+000	1.62700E+000	-1.06421E-004	12	...........	-327.56
	11873	5937	1.63082E+000	8.96244E-001	0.00000E+000	1.63300E+000	-1.04288E-004	12	...........	-327.56
	11879	5940	1.63681E+000	9.04954E-001	0.00000E+000	1.63900E+000	-1.06255E-004	12	...........	-327.56
	11885	5943	1.64282E+000	9.19532E-001	0.00000E+000	1.64500E+000	-1.05421E-004	12	...........	-327.56
	11891	5946	1.64882E+000	9.30362E-001	0.00000E+000	1.65100E+000	-1.01055E-004	12	...........	-327.56
	11897	5949	1.65476E+000	9.49647E-001	0.00000E+000	1.65700E+000	-1.02255E-004	12	...........	-327.56
	11903	5952	1.66077E+000	9.67775E-001	0.00000E+000	1.66300E+000	-1.04855E-004	12	...........	-327.56
	11909	5955	1.66677E+000	9.82799E-001	0.00000E+000	1.66900E+000	-1.00188E-004	12	...........	-327.56
	11915	5958	1.67278E+000	9.96330E-001	0.00000E+000	1.67500E+000	-1.03255E-004	12	...........	-327.56
	11921	5961	1.67870E+000	1.02259E+000	0.00000E+000	1.68100E+000	-1.05788E-004	12	...........	-327.56
	11927	5964	1.68474E+000	1.03940E+000	0.00000E+000	1.68700E+000	-1.03855E-004	12	...........	-327.56
	11933	5967	1.69072E+000	1.05530E+000	0.00000E+000	1.69300E+000	-1.02921E-004	12	...........	-327.56
	11939	5970	1.69673E+000	1.06196E+000	0.00000E+000	1.69900E+000	-9.86548E-005	12	...........	-327.56
	11940	5970.5	1.69772E+000	1.07313E+000	0.00000E+000	1.70000E+000	-1.08921E-004	12	...........	-327.56