File: testing/data/240902_14_MCL13_cswWE_CV1_750C_CO2.DTA
EXPLAIN
TAG	CV
TITLE	LABEL	Cyclic Voltammetry	Test Identifier
DATE	LABEL	9/3/2024	Date
TIME	LABEL	11:28:09	Time
NOTES	NOTES	5	Notes...
	cswWE - carbon steel wire
cspWE - carbon steel plate 2x2 tapered

Carbon steel plate counter electrode
Carbon steel wire reference electrode
PSTAT	PSTAT	REF3000-48128	Potentiostat
VINIT	POTEN	0.00000E+000	T	Initial E (V)
VLIMIT1	POTEN	1.70000E+000	F	Scan Limit 1 (V)
VLIMIT2	POTEN	-8.00000E-001	F	Scan Limit 2 (V)
VFINAL	POTEN	1.70000E+000	F	Final E (V)
SCANRATE	QUANT	9.99998E-001	Scan Rate (mV/s)
STEPSIZE	QUANT	1.00000E+000	Step Size (mV)
CYCLES	IQUANT	2	Cycles (#)
IMODE	SELECTOR	0	I/E Range Mode
IRANGE	QUANT	3.00000E-001	Max Current (mA)
AREA	QUANT	1.00000E+000	Sample Area (cm^2)
EQDELAY	QUANT	0.00000E+000	Equil. Time (s)
IRCOMP	SELECTOR	0	IRComp
PFCOR	QUANT	5.00000E+001	PF Corr. (ohm)
SAMPLINGMODE	SELECTOR	1	Sampling Mode
EOC	QUANT	0.3625399	Open Circuit (V)
ELECTRODETYPE	SELECTOR	0	Electrode Type
STRIPPING	TOGGLE	F	Used for Stripping
SEQUENCER	TOGGLE	TRUE	Run as Sequence
PSTATMODEL	IQUANT	5	Pstat Model
PSTATSECTION	LABEL	REF3000-48128	Pstat Section
PSTATSERIALNO	LABEL	48128	Pstat Serial Number
CTRLMODE	IQUANT	1	Control Mode
ELECTROMETER	IQUANT	0	RE=0 or CS=1
IESTAB	IQUANT	2	I/E Stability
CASPEED	IQUANT	4	Control Amp Speed
CONVENTION	IQUANT	1	Current Convention
ICHRANGE	IQUANT	2	Ich Range
ICHRANGEMODE	TOGGLE	F	Ich Auto Range
ICHOFFSETENABLE	TOGGLE	F	Ich Offset Enable
ICHOFFSET	QUANT	0	Ich Offset (V)
ICHFILTER	IQUANT	3	Ich Filter
VCHRANGE	IQUANT	2	Vch Range
VCHRANGEMODE	TOGGLE	F	Vch Auto Range
VCHOFFSETENABLE	TOGGLE	F	Vch Offset Enable
VCHOFFSET	QUANT	0	Vch Offset (V)
VCHFILTER	IQUANT	3	Vch Filter
ACHRANGE	IQUANT	2	Ach Range
ACHOFFSETENABLE	TOGGLE	F	Ach Offset Enable
ACHOFFSET	QUANT	0	Ach Offset (V)
ACHFILTER	IQUANT	1	Ach Filter
IERANGELOWERLIMIT	IQUANT	2	I/E Range Lower Limit
IERANGEMODE	TOGGLE	T	I/E AutoRange
IERANGE	IQUANT	9	I/E Range
POSFEEDENABLE	TOGGLE	F	Positive Feedback IR Comp
POSFEEDRESISTANCE	QUANT	0	Positive Feedback Resistance (ohm)
ACHSELECT	IQUANT	4	Ach Select
SENSECABLEID	IQUANT	14	Sense Cable ID
PWRCABLEID	IQUANT	7	Power Cable ID
DCCALDATE	LABEL	8/16/2024	DC Calibration Date
ACCALDATE	LABEL	8/16/2024	AC Calibration Date
THERMOSELECT	IQUANT	1	Thermo Select
FRAMEWORKVERSION	LABEL	7.10.3	Framework Version
INSTRUMENTVERSION	LABEL	4.91	Instrument Version
COMMVERSION	LABEL	5.10	Communications Version
CPUPLDVERSION	LABEL	6.00	CPU PLD Version
CTRLPLDVERSION	LABEL	3.21	CTRL PLD Version
PSTATPLDVERSION	LABEL	0.00	PSTAT PLD Version
COMPLIANCEVOLTAGE	IQUANT	0	Compliance Voltage
CURVE1	TABLE
	Pt	T	Vf	Im	Vu	Sig	Ach	IERange	Over	Temp
	#	s	V vs. Ref.	A	V	V	V	#	bits	deg C
	0	1	3.62002E-001	1.00798E-003	0.00000E+000	3.62550E-001	-9.68381E-005	9	...........	-327.56
	8	9	3.69796E-001	2.70043E-003	0.00000E+000	3.70550E-001	-9.62548E-005	9	...........	-327.56
	16	17	3.78007E-001	3.77118E-003	0.00000E+000	3.78550E-001	-9.74714E-005	10	...........	-327.56
	24	25	3.86054E-001	4.10378E-003	0.00000E+000	3.86550E-001	-1.11455E-004	10	...........	-327.56
	32	33	3.94071E-001	4.41071E-003	0.00000E+000	3.94550E-001	-1.10655E-004	10	...........	-327.56
	40	41	4.01988E-001	4.66949E-003	0.00000E+000	4.02550E-001	-1.11221E-004	10	...........	-327.56
	48	49	4.10027E-001	3.75129E-003	0.00000E+000	4.10550E-001	-1.07588E-004	10	...........	-327.56
	56	57	4.18060E-001	4.39930E-003	0.00000E+000	4.18550E-001	-1.09205E-004	10	...........	-327.56
	64	65	4.25965E-001	5.07486E-003	0.00000E+000	4.26550E-001	-1.10005E-004	10	...........	-327.56
	72	73	4.33982E-001	5.80306E-003	0.00000E+000	4.34550E-001	-1.09038E-004	10	...........	-327.56
	80	81	4.42026E-001	5.86917E-003	0.00000E+000	4.42550E-001	-1.09005E-004	10	...........	-327.56
	88	89	4.49941E-001	5.90678E-003	0.00000E+000	4.50550E-001	-1.09638E-004	10	...........	-327.56
	96	97	4.57962E-001	5.97722E-003	0.00000E+000	4.58550E-001	-1.06755E-004	10	...........	-327.56
	104	105	4.65991E-001	6.06096E-003	0.00000E+000	4.66550E-001	-1.09388E-004	10	...........	-327.56
	112	113	4.73889E-001	6.17463E-003	0.00000E+000	4.74550E-001	-1.06605E-004	10	...........	-327.56
	120	121	4.81926E-001	6.22122E-003	0.00000E+000	4.82550E-001	-1.11071E-004	10	...........	-327.56
	128	129	4.89966E-001	6.37797E-003	0.00000E+000	4.90550E-001	-1.09121E-004	10	...........	-327.56
	136	137	4.97980E-001	6.47076E-003	0.00000E+000	4.98550E-001	-1.12121E-004	10	...........	-327.56
	144	145	5.05914E-001	6.52105E-003	0.00000E+000	5.06550E-001	-1.05905E-004	10	...........	-327.56
	152	153	5.13899E-001	6.55435E-003	0.00000E+000	5.14550E-001	-1.09555E-004	10	...........	-327.56
	160	161	5.21915E-001	6.59398E-003	0.00000E+000	5.22550E-001	-1.09588E-004	10	...........	-327.56
	168	169	5.29846E-001	6.62960E-003	0.00000E+000	5.30550E-001	-1.10755E-004	10	...........	-327.56
	176	177	5.37866E-001	6.67274E-003	0.00000E+000	5.38550E-001	-1.12055E-004	10	...........	-327.56
	184	185	5.45907E-001	6.67810E-003	0.00000E+000	5.46550E-001	-1.12588E-004	10	...........	-327.56
	192	193	5.53839E-001	6.73957E-003	0.00000E+000	5.54550E-001	-1.09555E-004	10	...........	-327.56
	200	201	5.61856E-001	6.85858E-003	0.00000E+000	5.62550E-001	-1.11505E-004	10	...........	-327.56
	208	209	5.69888E-001	6.93213E-003	0.00000E+000	5.70550E-001	-1.08521E-004	10	...........	-327.56
	216	217	5.77788E-001	6.95340E-003	0.00000E+000	5.78550E-001	-1.12305E-004	10	...........	-327.56
	224	225	5.85834E-001	6.98367E-003	0.00000E+000	5.86550E-001	-1.09205E-004	10	...........	-327.56
	232	233	5.93867E-001	7.02669E-003	0.00000E+000	5.94550E-001	-1.10088E-004	10	...........	-327.56
	240	241	6.01785E-001	7.04560E-003	0.00000E+000	6.02550E-001	-1.08805E-004	10	...........	-327.56
	248	249	6.09821E-001	6.98250E-003	0.00000E+000	6.10550E-001	-1.09988E-004	10	...........	-327.56
	256	257	6.17827E-001	7.00017E-003	0.00000E+000	6.18550E-001	-1.10338E-004	10	...........	-327.56
	264	265	6.25838E-001	6.98698E-003	0.00000E+000	6.26550E-001	-1.09805E-004	10	...........	-327.56
	272	273	6.33780E-001	6.95776E-003	0.00000E+000	6.34550E-001	-1.09621E-004	10	...........	-327.56
	280	281	6.41811E-001	6.99502E-003	0.00000E+000	6.42550E-001	-1.13255E-004	10	...........	-327.56
	288	289	6.49833E-001	6.95722E-003	0.00000E+000	6.50550E-001	-1.09138E-004	10	...........	-327.56
	296	297	6.57753E-001	6.94834E-003	0.00000E+000	6.58550E-001	-1.11271E-004	10	...........	-327.56
	304	305	6.65774E-001	6.92890E-003	0.00000E+000	6.66550E-001	-1.09338E-004	10	...........	-327.56
	312	313	6.73802E-001	6.88701E-003	0.00000E+000	6.74550E-001	-1.08955E-004	10	...........	-327.56
	320	321	6.81719E-001	6.88234E-003	0.00000E+000	6.82550E-001	-1.11521E-004	10	...........	-327.56
	328	329	6.89752E-001	6.86426E-003	0.00000E+000	6.90550E-001	-1.10055E-004	10	...........	-327.56
	336	337	6.97777E-001	6.89459E-003	0.00000E+000	6.98550E-001	-1.08771E-004	10	...........	-327.56
	344	345	7.05682E-001	6.79705E-003	0.00000E+000	7.06550E-001	-1.11021E-004	10	...........	-327.56
	352	353	7.13744E-001	6.81600E-003	0.00000E+000	7.14550E-001	-1.07271E-004	10	...........	-327.56
	360	361	7.21732E-001	6.68603E-003	0.00000E+000	7.22550E-001	-1.11138E-004	10	...........	-327.56
	368	369	7.29690E-001	6.78975E-003	0.00000E+000	7.30550E-001	-1.10855E-004	10	...........	-327.56
	376	377	7.37687E-001	6.49556E-003	0.00000E+000	7.38550E-001	-1.10771E-004	10	...........	-327.56
	384	385	7.45730E-001	6.49509E-003	0.00000E+000	7.46550E-001	-1.11105E-004	10	...........	-327.56
	392	393	7.53713E-001	6.52007E-003	0.00000E+000	7.54550E-001	-1.12671E-004	10	...........	-327.56
	400	401	7.61641E-001	6.52940E-003	0.00000E+000	7.62550E-001	-1.09305E-004	10	...........	-327.56
	408	409	7.69685E-001	6.50477E-003	0.00000E+000	7.70550E-001	-1.11488E-004	10	...........	-327.56
	416	417	7.77702E-001	6.57489E-003	0.00000E+000	7.78550E-001	-1.11688E-004	10	...........	-327.56
	424	425	7.85608E-001	6.50921E-003	0.00000E+000	7.86550E-001	-1.09988E-004	10	...........	-327.56
	432	433	7.93630E-001	6.56762E-003	0.00000E+000	7.94550E-001	-1.11005E-004	10	...........	-327.56
	440	441	8.01680E-001	6.50284E-003	0.00000E+000	8.02550E-001	-1.11521E-004	10	...........	-327.56
	448	449	8.09588E-001	6.48482E-003	0.00000E+000	8.10550E-001	-1.12505E-004	10	...........	-327.56
	456	457	8.17617E-001	6.45797E-003	0.00000E+000	8.18550E-001	-1.10205E-004	10	...........	-327.56
	464	465	8.25614E-001	6.55977E-003	0.00000E+000	8.26550E-001	-1.10471E-004	10	...........	-327.56
	472	473	8.33560E-001	6.53758E-003	0.00000E+000	8.34550E-001	-1.10105E-004	10	...........	-327.56
	480	481	8.41583E-001	6.57146E-003	0.00000E+000	8.42550E-001	-1.09738E-004	10	...........	-327.56
	488	489	8.49604E-001	6.58981E-003	0.00000E+000	8.50550E-001	-1.08655E-004	10	...........	-327.56
	496	497	8.57589E-001	6.66131E-003	0.00000E+000	8.58550E-001	-1.13555E-004	10	...........	-327.56
	504	505	8.65555E-001	6.73170E-003	0.00000E+000	8.66550E-001	-1.11355E-004	10	...........	-327.56
	512	513	8.73578E-001	6.79409E-003	0.00000E+000	8.74550E-001	-1.09655E-004	10	...........	-327.56
	520	521	8.81579E-001	6.96010E-003	0.00000E+000	8.82550E-001	-1.12238E-004	10	...........	-327.56
	528	529	8.89538E-001	7.10399E-003	0.00000E+000	8.90550E-001	-1.10821E-004	10	...........	-327.56
	536	537	8.97561E-001	7.20371E-003	0.00000E+000	8.98550E-001	-1.12871E-004	10	...........	-327.56
	544	545	9.05560E-001	7.35901E-003	0.00000E+000	9.06550E-001	-1.08738E-004	10	...........	-327.56
	552	553	9.13534E-001	7.52719E-003	0.00000E+000	9.14550E-001	-1.10905E-004	10	...........	-327.56
	560	561	9.21526E-001	7.76298E-003	0.00000E+000	9.22550E-001	-1.07638E-004	10	...........	-327.56
	568	569	9.29514E-001	7.97549E-003	0.00000E+000	9.30550E-001	-1.07821E-004	10	...........	-327.56
	576	577	9.37500E-001	7.90186E-003	0.00000E+000	9.38550E-001	-1.10621E-004	10	...........	-327.56
	584	585	9.45478E-001	8.11398E-003	0.00000E+000	9.46550E-001	-1.11088E-004	10	...........	-327.56
	592	593	9.53497E-001	8.36123E-003	0.00000E+000	9.54550E-001	-1.07688E-004	10	...........	-327.56
	600	601	9.61482E-001	8.77206E-003	0.00000E+000	9.62550E-001	-1.10288E-004	10	...........	-327.56
	608	609	9.69470E-001	9.42281E-003	0.00000E+000	9.70550E-001	-1.09371E-004	10	...........	-327.56
	616	617	9.77462E-001	1.01783E-002	0.00000E+000	9.78550E-001	-1.10405E-004	10	...........	-327.56
	624	625	9.85440E-001	1.09101E-002	0.00000E+000	9.86550E-001	-1.06255E-004	10	...........	-327.56
	632	633	9.93414E-001	1.17712E-002	0.00000E+000	9.94550E-001	-1.11521E-004	10	...........	-327.56
	640	641	1.00141E+000	1.27245E-002	0.00000E+000	1.00255E+000	-1.09138E-004	10	...........	-327.56
	648	649	1.00940E+000	1.34585E-002	0.00000E+000	1.01055E+000	-1.08421E-004	10	...........	-327.56
	656	657	1.01734E+000	1.44546E-002	0.00000E+000	1.01855E+000	-1.10071E-004	10	...........	-327.56
	664	665	1.02534E+000	1.50983E-002	0.00000E+000	1.02655E+000	-1.11321E-004	10	...........	-327.56
	672	673	1.03332E+000	1.65733E-002	0.00000E+000	1.03455E+000	-1.07038E-004	10	...........	-327.56
	680	681	1.04123E+000	1.79923E-002	0.00000E+000	1.04255E+000	-1.06388E-004	10	...........	-327.56
	688	689	1.04921E+000	1.91848E-002	0.00000E+000	1.05055E+000	-1.05121E-004	10	...........	-327.56
	696	697	1.05725E+000	2.00369E-002	0.00000E+000	1.05855E+000	-1.06938E-004	10	...........	-327.56
	704	705	1.06517E+000	2.03065E-002	0.00000E+000	1.06655E+000	-1.05171E-004	10	...........	-327.56
	712	713	1.07318E+000	2.10603E-002	0.00000E+000	1.07455E+000	-1.08055E-004	10	...........	-327.56
	720	721	1.08122E+000	2.10232E-002	0.00000E+000	1.08255E+000	-1.05088E-004	10	...........	-327.56
	728	729	1.08914E+000	2.03691E-002	0.00000E+000	1.09055E+000	-1.06038E-004	10	...........	-327.56
	736	737	1.09718E+000	1.94492E-002	0.00000E+000	1.09855E+000	-1.06421E-004	10	...........	-327.56
	744	745	1.10522E+000	1.85057E-002	0.00000E+000	1.10655E+000	-1.06605E-004	10	...........	-327.56
	752	753	1.11322E+000	1.77815E-002	0.00000E+000	1.11455E+000	-1.04988E-004	10	...........	-327.56
	760	761	1.12120E+000	1.73056E-002	0.00000E+000	1.12255E+000	-1.08821E-004	10	...........	-327.56
	768	769	1.12917E+000	1.72924E-002	0.00000E+000	1.13055E+000	-1.07138E-004	10	...........	-327.56
	776	777	1.13718E+000	1.79408E-002	0.00000E+000	1.13855E+000	-1.08521E-004	10	...........	-327.56
	784	785	1.14511E+000	1.88130E-002	0.00000E+000	1.14655E+000	-1.05955E-004	10	...........	-327.56
	792	793	1.15312E+000	1.99697E-002	0.00000E+000	1.15455E+000	-1.05721E-004	10	...........	-327.56
	800	801	1.16112E+000	2.10505E-002	0.00000E+000	1.16255E+000	-1.07138E-004	10	...........	-327.56
	808	809	1.16904E+000	2.23345E-002	0.00000E+000	1.17055E+000	-1.07605E-004	10	...........	-327.56
	816	817	1.17706E+000	2.37474E-002	0.00000E+000	1.17855E+000	-1.02538E-004	10	...........	-327.56
	824	825	1.18504E+000	2.60906E-002	0.00000E+000	1.18655E+000	-1.07105E-004	10	...........	-327.56
	832	833	1.19327E+000	2.83364E-002	0.00000E+000	1.19455E+000	-1.09988E-004	11	...........	-327.56
	840	841	1.20128E+000	3.09324E-002	0.00000E+000	1.20255E+000	-1.11988E-004	11	...........	-327.56
	848	849	1.20931E+000	3.40136E-002	0.00000E+000	1.21055E+000	-1.12605E-004	11	...........	-327.56
	856	857	1.21723E+000	3.71774E-002	0.00000E+000	1.21855E+000	-1.12438E-004	11	...........	-327.56
	864	865	1.22525E+000	4.02355E-002	0.00000E+000	1.22655E+000	-1.12088E-004	11	...........	-327.56
	872	873	1.23328E+000	4.32437E-002	0.00000E+000	1.23455E+000	-1.11605E-004	11	...........	-327.56
	880	881	1.24127E+000	4.75823E-002	0.00000E+000	1.24255E+000	-1.09121E-004	11	...........	-327.56
	888	889	1.24921E+000	5.20156E-002	0.00000E+000	1.25055E+000	-1.11088E-004	11	...........	-327.56
	896	897	1.25724E+000	5.70622E-002	0.00000E+000	1.25855E+000	-1.10071E-004	11	...........	-327.56
	904	905	1.26525E+000	6.29003E-002	0.00000E+000	1.26655E+000	-1.08771E-004	11	...........	-327.56
	912	913	1.27316E+000	6.71875E-002	0.00000E+000	1.27455E+000	-1.07638E-004	11	...........	-327.56
	920	921	1.28118E+000	7.37048E-002	0.00000E+000	1.28255E+000	-1.10021E-004	11	...........	-327.56
	928	929	1.28917E+000	8.11420E-002	0.00000E+000	1.29055E+000	-1.05738E-004	11	...........	-327.56
	936	937	1.29710E+000	9.22127E-002	0.00000E+000	1.29855E+000	-1.11238E-004	11	...........	-327.56
	944	945	1.30511E+000	9.95705E-002	0.00000E+000	1.30655E+000	-1.06321E-004	11	...........	-327.56
	952	953	1.31312E+000	1.08148E-001	0.00000E+000	1.31455E+000	-1.11555E-004	11	...........	-327.56
	960	961	1.32104E+000	1.18042E-001	0.00000E+000	1.32255E+000	-1.10588E-004	11	...........	-327.56
	968	969	1.32905E+000	1.29029E-001	0.00000E+000	1.33055E+000	-1.11438E-004	11	...........	-327.56
	976	977	1.33702E+000	1.38157E-001	0.00000E+000	1.33855E+000	-1.06438E-004	11	...........	-327.56
	984	985	1.34491E+000	1.49782E-001	0.00000E+000	1.34655E+000	-1.08988E-004	11	...........	-327.56
	992	993	1.35293E+000	1.63747E-001	0.00000E+000	1.35455E+000	-1.09721E-004	11	...........	-327.56
	1000	1001	1.36094E+000	1.80571E-001	0.00000E+000	1.36255E+000	-1.09071E-004	11	...........	-327.56
	1008	1009	1.36891E+000	1.98500E-001	0.00000E+000	1.37055E+000	-1.10405E-004	11	...........	-327.56
	1016	1017	1.37682E+000	2.14442E-001	0.00000E+000	1.37855E+000	-1.06888E-004	11	...........	-327.56
	1024	1025	1.38483E+000	2.28343E-001	0.00000E+000	1.38655E+000	-1.08938E-004	11	...........	-327.56
	1032	1033	1.39282E+000	2.43401E-001	0.00000E+000	1.39455E+000	-1.05321E-004	11	...........	-327.56
	1040	1041	1.40072E+000	2.60957E-001	0.00000E+000	1.40255E+000	-1.05055E-004	11	...........	-327.56
	1048	1049	1.40901E+000	2.80354E-001	0.00000E+000	1.41055E+000	-1.11088E-004	12	...........	-327.56
	1056	1057	1.41703E+000	2.91950E-001	0.00000E+000	1.41855E+000	-1.12521E-004	12	...........	-327.56
	1064	1065	1.42496E+000	3.07567E-001	0.00000E+000	1.42655E+000	-1.12988E-004	12	...........	-327.56
	1072	1073	1.43296E+000	3.21901E-001	0.00000E+000	1.43455E+000	-1.12388E-004	12	...........	-327.56
	1080	1081	1.44096E+000	3.40595E-001	0.00000E+000	1.44255E+000	-1.08771E-004	12	...........	-327.56
	1088	1089	1.44885E+000	3.54487E-001	0.00000E+000	1.45055E+000	-1.12455E-004	12	...........	-327.56
	1096	1097	1.45689E+000	3.65976E-001	0.00000E+000	1.45855E+000	-1.11571E-004	12	...........	-327.56
	1104	1105	1.46493E+000	3.78919E-001	0.00000E+000	1.46655E+000	-1.16688E-004	12	...........	-327.56
	1112	1113	1.47279E+000	3.96075E-001	0.00000E+000	1.47455E+000	-1.14688E-004	12	...........	-327.56
	1120	1121	1.48083E+000	4.12281E-001	0.00000E+000	1.48255E+000	-1.13055E-004	12	...........	-327.56
	1128	1129	1.48886E+000	4.30413E-001	0.00000E+000	1.49055E+000	-1.09588E-004	12	...........	-327.56
	1136	1137	1.49684E+000	4.49416E-001	0.00000E+000	1.49855E+000	-1.15805E-004	12	...........	-327.56
	1144	1145	1.50478E+000	4.71548E-001	0.00000E+000	1.50655E+000	-1.08088E-004	12	...........	-327.56
	1152	1153	1.51281E+000	4.95714E-001	0.00000E+000	1.51455E+000	-1.10338E-004	12	...........	-327.56
	1160	1161	1.52079E+000	5.11120E-001	0.00000E+000	1.52255E+000	-1.10455E-004	12	...........	-327.56
	1168	1169	1.52873E+000	5.32451E-001	0.00000E+000	1.53055E+000	-1.10505E-004	12	...........	-327.56
	1176	1177	1.53669E+000	5.53948E-001	0.00000E+000	1.53855E+000	-1.07288E-004	12	...........	-327.56
	1184	1185	1.54470E+000	5.73191E-001	0.00000E+000	1.54655E+000	-1.06121E-004	12	...........	-327.56
	1192	1193	1.55262E+000	5.90459E-001	0.00000E+000	1.55455E+000	-1.08521E-004	12	...........	-327.56
	1200	1201	1.56061E+000	6.15832E-001	0.00000E+000	1.56255E+000	-1.11571E-004	12	...........	-327.56
	1208	1209	1.56866E+000	6.33095E-001	0.00000E+000	1.57055E+000	-1.05271E-004	12	...........	-327.56
	1216	1217	1.57658E+000	6.42178E-001	0.00000E+000	1.57855E+000	-1.11005E-004	12	...........	-327.56
	1224	1225	1.58459E+000	6.62659E-001	0.00000E+000	1.58655E+000	-1.09155E-004	12	...........	-327.56
	1232	1233	1.59259E+000	7.05265E-001	0.00000E+000	1.59455E+000	-1.10071E-004	12	...........	-327.56
	1240	1241	1.60049E+000	7.18279E-001	0.00000E+000	1.60255E+000	-1.11305E-004	12	...........	-327.56
	1248	1249	1.60852E+000	7.29786E-001	0.00000E+000	1.61055E+000	-1.12305E-004	12	...........	-327.56
	1256	1257	1.61654E+000	7.54647E-001	0.00000E+000	1.61855E+000	-1.07421E-004	12	...........	-327.56
	1264	1265	1.62451E+000	7.84287E-001	0.00000E+000	1.62655E+000	-1.08755E-004	12	...........	-327.56
	1272	1273	1.63244E+000	8.06491E-001	0.00000E+000	1.63455E+000	-1.08021E-004	12	...........	-327.56
	1280	1281	1.64043E+000	8.27315E-001	0.00000E+000	1.64255E+000	-1.11288E-004	12	...........	-327.56
	1288	1289	1.64844E+000	8.44738E-001	0.00000E+000	1.65055E+000	-1.07805E-004	12	...........	-327.56
	1296	1297	1.65637E+000	8.62171E-001	0.00000E+000	1.65855E+000	-1.09888E-004	12	...........	-327.56
	1304	1305	1.66438E+000	8.82026E-001	0.00000E+000	1.66655E+000	-1.07238E-004	12	...........	-327.56
	1312	1313	1.67240E+000	9.05961E-001	0.00000E+000	1.67455E+000	-1.07388E-004	12	...........	-327.56
	1320	1321	1.68032E+000	9.28759E-001	0.00000E+000	1.68255E+000	-1.08971E-004	12	...........	-327.56
	1328	1329	1.68832E+000	9.54307E-001	0.00000E+000	1.69055E+000	-1.11721E-004	12	...........	-327.56
	1336	1337	1.69635E+000	9.71824E-001	0.00000E+000	1.69855E+000	-1.05788E-004	12	...........	-327.56
	1344	1345	1.69033E+000	9.46678E-001	0.00000E+000	1.69255E+000	-1.05655E-004	12	...........	-327.56
	1352	1353	1.68231E+000	9.52293E-001	0.00000E+000	1.68455E+000	-1.08521E-004	12	...........	-327.56
	1360	1361	1.67438E+000	9.30554E-001	0.00000E+000	1.67655E+000	-1.09588E-004	12	...........	-327.56
	1368	1369	1.66638E+000	9.20519E-001	0.00000E+000	1.66855E+000	-1.07838E-004	12	...........	-327.56
	1376	1377	1.65835E+000	9.00345E-001	0.00000E+000	1.66055E+000	-1.06988E-004	12	...........	-327.56
	1384	1385	1.65042E+000	8.85188E-001	0.00000E+000	1.65255E+000	-1.12455E-004	12	...........	-327.56
	1392	1393	1.64241E+000	8.79406E-001	0.00000E+000	1.64455E+000	-1.10705E-004	12	...........	-327.56
	1400	1401	1.63441E+000	8.55059E-001	0.00000E+000	1.63655E+000	-1.08438E-004	12	...........	-327.56
	1408	1409	1.62638E+000	8.37414E-001	0.00000E+000	1.62855E+000	-1.11105E-004	12	...........	-327.56
	1416	1417	1.61850E+000	8.32202E-001	0.00000E+000	1.62055E+000	-1.10755E-004	12	...........	-327.56
	1424	1425	1.61045E+000	8.20722E-001	0.00000E+000	1.61255E+000	-1.09971E-004	12	...........	-327.56
	1432	1433	1.60243E+000	8.08403E-001	0.00000E+000	1.60455E+000	-1.10938E-004	12	...........	-327.56
	1440	1441	1.59453E+000	7.84366E-001	0.00000E+000	1.59655E+000	-1.13121E-004	12	...........	-327.56
	1448	1449	1.58652E+000	7.75884E-001	0.00000E+000	1.58855E+000	-1.09088E-004	12	...........	-327.56
	1456	1457	1.57852E+000	7.50171E-001	0.00000E+000	1.58055E+000	-1.07021E-004	12	...........	-327.56
	1464	1465	1.57059E+000	7.40403E-001	0.00000E+000	1.57255E+000	-1.11155E-004	12	...........	-327.56
	1472	1473	1.56258E+000	7.23989E-001	0.00000E+000	1.56455E+000	-1.07455E-004	12	...........	-327.56
	1480	1481	1.55457E+000	7.02656E-001	0.00000E+000	1.55655E+000	-1.10205E-004	12	...........	-327.56
	1488	1489	1.54662E+000	6.82119E-001	0.00000E+000	1.54855E+000	-1.08405E-004	12	...........	-327.56
	1496	1497	1.53864E+000	6.67369E-001	0.00000E+000	1.54055E+000	-1.09421E-004	12	...........	-327.56
	1504	1505	1.53065E+000	6.51193E-001	0.00000E+000	1.53255E+000	-1.11155E-004	12	...........	-327.56
	1512	1513	1.52270E+000	6.28004E-001	0.00000E+000	1.52455E+000	-1.09588E-004	12	...........	-327.56
	1520	1521	1.51472E+000	6.13250E-001	0.00000E+000	1.51655E+000	-1.07121E-004	12	...........	-327.56
	1528	1529	1.50670E+000	5.84404E-001	0.00000E+000	1.50855E+000	-1.08805E-004	12	...........	-327.56
	1536	1537	1.49869E+000	5.55517E-001	0.00000E+000	1.50055E+000	-1.11155E-004	12	...........	-327.56
	1544	1545	1.49079E+000	5.45477E-001	0.00000E+000	1.49255E+000	-1.06138E-004	12	...........	-327.56
	1552	1553	1.48276E+000	5.26490E-001	0.00000E+000	1.48455E+000	-1.07905E-004	12	...........	-327.56
	1560	1561	1.47475E+000	5.07324E-001	0.00000E+000	1.47655E+000	-1.05555E-004	12	...........	-327.56
	1568	1569	1.46683E+000	5.11086E-001	0.00000E+000	1.46855E+000	-1.08071E-004	12	...........	-327.56
	1576	1577	1.45879E+000	5.05477E-001	0.00000E+000	1.46055E+000	-1.07171E-004	12	...........	-327.56
	1584	1585	1.45077E+000	4.95557E-001	0.00000E+000	1.45255E+000	-1.09221E-004	12	...........	-327.56
	1592	1593	1.44286E+000	4.77330E-001	0.00000E+000	1.44455E+000	-1.08005E-004	12	...........	-327.56
	1600	1601	1.43486E+000	4.60516E-001	0.00000E+000	1.43655E+000	-1.09305E-004	12	...........	-327.56
	1608	1609	1.42685E+000	4.48678E-001	0.00000E+000	1.42855E+000	-1.05388E-004	12	...........	-327.56
	1616	1617	1.41893E+000	4.33093E-001	0.00000E+000	1.42055E+000	-1.07138E-004	12	...........	-327.56
	1624	1625	1.41095E+000	4.18562E-001	0.00000E+000	1.41255E+000	-1.07871E-004	12	...........	-327.56
	1632	1633	1.40293E+000	3.95326E-001	0.00000E+000	1.40455E+000	-1.08488E-004	12	...........	-327.56
	1640	1641	1.39497E+000	3.86789E-001	0.00000E+000	1.39655E+000	-1.07321E-004	12	...........	-327.56
	1648	1649	1.38699E+000	3.72374E-001	0.00000E+000	1.38855E+000	-1.07405E-004	12	...........	-327.56
	1656	1657	1.37899E+000	3.43900E-001	0.00000E+000	1.38055E+000	-1.08655E-004	12	...........	-327.56
	1664	1665	1.37104E+000	3.14567E-001	0.00000E+000	1.37255E+000	-1.11388E-004	12	...........	-327.56
	1672	1673	1.36309E+000	2.92089E-001	0.00000E+000	1.36455E+000	-1.06771E-004	12	...........	-327.56
	1680	1681	1.35508E+000	2.74130E-001	0.00000E+000	1.35655E+000	-1.10871E-004	12	...........	-327.56
	1688	1689	1.34709E+000	2.60306E-001	0.00000E+000	1.34855E+000	-1.12188E-004	12	...........	-327.56
	1696	1697	1.33912E+000	2.46881E-001	0.00000E+000	1.34055E+000	-1.08638E-004	12	...........	-327.56
	1704	1705	1.33113E+000	2.41166E-001	0.00000E+000	1.33255E+000	-1.09038E-004	12	...........	-327.56
	1712	1713	1.32285E+000	2.28002E-001	0.00000E+000	1.32455E+000	-1.06055E-004	11	...........	-327.56
	1720	1721	1.31498E+000	2.03420E-001	0.00000E+000	1.31655E+000	-1.05655E-004	11	...........	-327.56
	1728	1729	1.30702E+000	1.84955E-001	0.00000E+000	1.30855E+000	-1.07238E-004	11	...........	-327.56
	1736	1737	1.29904E+000	1.69894E-001	0.00000E+000	1.30055E+000	-1.06755E-004	11	...........	-327.56
	1744	1745	1.29107E+000	1.58009E-001	0.00000E+000	1.29255E+000	-1.06205E-004	11	...........	-327.56
	1752	1753	1.28310E+000	1.47017E-001	0.00000E+000	1.28455E+000	-1.07738E-004	11	...........	-327.56
	1760	1761	1.27510E+000	1.46542E-001	0.00000E+000	1.27655E+000	-1.09305E-004	11	...........	-327.56
	1768	1769	1.26712E+000	1.34314E-001	0.00000E+000	1.26855E+000	-1.05421E-004	11	...........	-327.56
	1776	1777	1.25916E+000	1.16529E-001	0.00000E+000	1.26055E+000	-1.12505E-004	11	...........	-327.56
	1784	1785	1.25115E+000	1.04805E-001	0.00000E+000	1.25255E+000	-1.09771E-004	11	...........	-327.56
	1792	1793	1.24314E+000	9.66615E-002	0.00000E+000	1.24455E+000	-1.09621E-004	11	...........	-327.56
	1800	1801	1.23520E+000	8.67257E-002	0.00000E+000	1.23655E+000	-1.09305E-004	11	...........	-327.56
	1808	1809	1.22718E+000	7.56453E-002	0.00000E+000	1.22855E+000	-1.09738E-004	11	...........	-327.56
	1816	1817	1.21916E+000	7.15875E-002	0.00000E+000	1.22055E+000	-1.09905E-004	11	...........	-327.56
	1824	1825	1.21126E+000	6.57569E-002	0.00000E+000	1.21255E+000	-1.09205E-004	11	...........	-327.56
	1832	1833	1.20323E+000	6.03488E-002	0.00000E+000	1.20455E+000	-1.09005E-004	11	...........	-327.56
	1840	1841	1.19521E+000	5.43203E-002	0.00000E+000	1.19655E+000	-1.08655E-004	11	...........	-327.56
	1848	1849	1.18731E+000	4.68628E-002	0.00000E+000	1.18855E+000	-1.09921E-004	11	...........	-327.56
	1856	1857	1.17932E+000	4.18113E-002	0.00000E+000	1.18055E+000	-1.14471E-004	11	...........	-327.56
	1864	1865	1.17128E+000	3.69130E-002	0.00000E+000	1.17255E+000	-1.10738E-004	11	...........	-327.56
	1872	1873	1.16336E+000	3.25467E-002	0.00000E+000	1.16455E+000	-1.12388E-004	11	...........	-327.56
	1880	1881	1.15537E+000	2.82259E-002	0.00000E+000	1.15655E+000	-1.08821E-004	11	...........	-327.56
	1888	1889	1.14733E+000	2.51272E-002	0.00000E+000	1.14855E+000	-1.09921E-004	11	...........	-327.56
	1896	1897	1.13912E+000	2.22243E-002	0.00000E+000	1.14055E+000	-1.04271E-004	10	...........	-327.56
	1904	1905	1.13116E+000	1.97123E-002	0.00000E+000	1.13255E+000	-1.09238E-004	10	...........	-327.56
	1912	1913	1.12318E+000	1.74800E-002	0.00000E+000	1.12455E+000	-1.08571E-004	10	...........	-327.56
	1920	1921	1.11516E+000	1.54107E-002	0.00000E+000	1.11655E+000	-1.09771E-004	10	...........	-327.56
	1928	1929	1.10731E+000	1.42010E-002	0.00000E+000	1.10855E+000	-1.08888E-004	10	...........	-327.56
	1936	1937	1.09927E+000	1.29050E-002	0.00000E+000	1.10055E+000	-1.10688E-004	10	...........	-327.56
	1944	1945	1.09124E+000	1.16033E-002	0.00000E+000	1.09255E+000	-1.10005E-004	10	...........	-327.56
	1952	1953	1.08337E+000	1.03489E-002	0.00000E+000	1.08455E+000	-1.09555E-004	10	...........	-327.56
	1960	1961	1.07535E+000	9.49993E-003	0.00000E+000	1.07655E+000	-1.09071E-004	10	...........	-327.56
	1968	1969	1.06734E+000	8.67560E-003	0.00000E+000	1.06855E+000	-1.07671E-004	10	...........	-327.56
	1976	1977	1.05943E+000	7.97036E-003	0.00000E+000	1.06055E+000	-1.09755E-004	10	...........	-327.56
	1984	1985	1.05140E+000	7.40598E-003	0.00000E+000	1.05255E+000	-1.10538E-004	10	...........	-327.56
	1992	1993	1.04339E+000	7.01728E-003	0.00000E+000	1.04455E+000	-1.10488E-004	10	...........	-327.56
	2000	2001	1.03545E+000	6.55444E-003	0.00000E+000	1.03655E+000	-1.08505E-004	10	...........	-327.56
	2008	2009	1.02744E+000	6.37533E-003	0.00000E+000	1.02855E+000	-1.06921E-004	10	...........	-327.56
	2016	2017	1.01943E+000	6.05758E-003	0.00000E+000	1.02055E+000	-1.08921E-004	10	...........	-327.56
	2024	2025	1.01140E+000	5.93933E-003	0.00000E+000	1.01255E+000	-1.08388E-004	10	...........	-327.56
	2032	2033	1.00350E+000	5.62728E-003	0.00000E+000	1.00455E+000	-1.09271E-004	10	...........	-327.56
	2040	2041	9.95461E-001	5.41301E-003	0.00000E+000	9.96550E-001	-1.09805E-004	10	...........	-327.56
	2048	2049	9.87412E-001	5.22145E-003	0.00000E+000	9.88550E-001	-1.11205E-004	10	...........	-327.56
	2056	2057	9.79506E-001	5.14956E-003	0.00000E+000	9.80550E-001	-1.08488E-004	10	...........	-327.56
	2064	2065	9.71479E-001	5.01239E-003	0.00000E+000	9.72550E-001	-1.08471E-004	10	...........	-327.56
	2072	2073	9.63455E-001	4.98893E-003	0.00000E+000	9.64550E-001	-1.07371E-004	10	...........	-327.56
	2080	2081	9.55530E-001	4.79670E-003	0.00000E+000	9.56550E-001	-1.06971E-004	10	...........	-327.56
	2088	2089	9.47498E-001	4.85130E-003	0.00000E+000	9.48550E-001	-1.04805E-004	10	...........	-327.56
	2096	2097	9.39493E-001	4.76234E-003	0.00000E+000	9.40550E-001	-1.07221E-004	10	...........	-327.56
	2104	2105	9.31566E-001	4.66048E-003	0.00000E+000	9.32550E-001	-1.04771E-004	10	...........	-327.56
	2112	2113	9.23547E-001	4.60266E-003	0.00000E+000	9.24550E-001	-1.07605E-004	10	...........	-327.56
	2120	2121	9.15546E-001	4.56967E-003	0.00000E+000	9.16550E-001	-1.07388E-004	10	...........	-327.56
	2128	2129	9.07612E-001	4.46021E-003	0.00000E+000	9.08550E-001	-1.08955E-004	10	...........	-327.56
	2136	2137	8.99600E-001	4.39195E-003	0.00000E+000	9.00550E-001	-1.07638E-004	10	...........	-327.56
	2144	2145	8.91567E-001	4.38939E-003	0.00000E+000	8.92550E-001	-1.08821E-004	10	...........	-327.56
	2152	2153	8.83526E-001	4.37651E-003	0.00000E+000	8.84550E-001	-1.07338E-004	10	...........	-327.56
	2160	2161	8.75624E-001	4.31165E-003	0.00000E+000	8.76550E-001	-1.06155E-004	10	...........	-327.56
	2168	2169	8.67593E-001	4.31538E-003	0.00000E+000	8.68550E-001	-1.08255E-004	10	...........	-327.56
	2176	2177	8.59566E-001	4.29698E-003	0.00000E+000	8.60550E-001	-1.10855E-004	10	...........	-327.56
	2184	2185	8.51645E-001	4.25061E-003	0.00000E+000	8.52550E-001	-1.08155E-004	10	...........	-327.56
	2192	2193	8.43604E-001	4.21249E-003	0.00000E+000	8.44550E-001	-1.08555E-004	10	...........	-327.56
	2200	2201	8.35576E-001	4.25622E-003	0.00000E+000	8.36550E-001	-1.07038E-004	10	...........	-327.56
	2208	2209	8.27663E-001	4.17308E-003	0.00000E+000	8.28550E-001	-1.12421E-004	10	...........	-327.56
	2216	2217	8.19625E-001	4.20117E-003	0.00000E+000	8.20550E-001	-1.12455E-004	10	...........	-327.56
	2224	2225	8.11645E-001	4.19104E-003	0.00000E+000	8.12550E-001	-1.10721E-004	10	...........	-327.56
	2232	2233	8.03728E-001	4.20559E-003	0.00000E+000	8.04550E-001	-1.08421E-004	10	...........	-327.56
	2240	2241	7.95698E-001	4.24916E-003	0.00000E+000	7.96550E-001	-1.10038E-004	10	...........	-327.56
	2248	2249	7.87669E-001	4.22657E-003	0.00000E+000	7.88550E-001	-1.06421E-004	10	...........	-327.56
	2256	2257	7.79734E-001	4.20162E-003	0.00000E+000	7.80550E-001	-1.07088E-004	10	...........	-327.56
	2264	2265	7.71721E-001	4.20260E-003	0.00000E+000	7.72550E-001	-1.07438E-004	10	...........	-327.56
	2272	2273	7.63701E-001	4.28263E-003	0.00000E+000	7.64550E-001	-1.08671E-004	10	...........	-327.56
	2280	2281	7.55648E-001	4.28470E-003	0.00000E+000	7.56550E-001	-1.09255E-004	10	...........	-327.56
	2288	2289	7.47761E-001	4.30164E-003	0.00000E+000	7.48550E-001	-1.10671E-004	10	...........	-327.56
	2296	2297	7.39699E-001	4.25499E-003	0.00000E+000	7.40550E-001	-1.07921E-004	10	...........	-327.56
	2304	2305	7.31671E-001	4.22314E-003	0.00000E+000	7.32550E-001	-1.10855E-004	10	...........	-327.56
	2312	2313	7.23772E-001	4.10977E-003	0.00000E+000	7.24550E-001	-1.07755E-004	10	...........	-327.56
	2320	2321	7.15784E-001	4.03436E-003	0.00000E+000	7.16550E-001	-1.06255E-004	10	...........	-327.56
	2328	2329	7.07759E-001	4.01296E-003	0.00000E+000	7.08550E-001	-1.10388E-004	10	...........	-327.56
	2336	2337	6.99840E-001	3.96396E-003	0.00000E+000	7.00550E-001	-1.08021E-004	10	...........	-327.56
	2344	2345	6.91805E-001	3.90868E-003	0.00000E+000	6.92550E-001	-1.07988E-004	10	...........	-327.56
	2352	2353	6.83778E-001	3.80838E-003	0.00000E+000	6.84550E-001	-1.09055E-004	10	...........	-327.56
	2360	2361	6.75847E-001	3.78026E-003	0.00000E+000	6.76550E-001	-1.06588E-004	10	...........	-327.56
	2368	2369	6.67834E-001	3.78058E-003	0.00000E+000	6.68550E-001	-1.09555E-004	10	...........	-327.56
	2376	2377	6.59803E-001	3.78811E-003	0.00000E+000	6.60550E-001	-1.09338E-004	10	...........	-327.56
	2384	2385	6.51871E-001	3.74565E-003	0.00000E+000	6.52550E-001	-1.08721E-004	10	...........	-327.56
	2392	2393	6.43864E-001	3.69402E-003	0.00000E+000	6.44550E-001	-1.08805E-004	10	...........	-327.56
	2400	2401	6.35824E-001	3.65073E-003	0.00000E+000	6.36550E-001	-1.06305E-004	10	...........	-327.56
	2408	2409	6.27779E-001	3.59859E-003	0.00000E+000	6.28550E-001	-1.06605E-004	10	...........	-327.56
	2416	2417	6.19881E-001	3.54916E-003	0.00000E+000	6.20550E-001	-1.04971E-004	10	...........	-327.56
	2424	2425	6.11853E-001	3.52624E-003	0.00000E+000	6.12550E-001	-1.05955E-004	10	...........	-327.56
	2432	2433	6.03834E-001	3.46929E-003	0.00000E+000	6.04550E-001	-1.08055E-004	10	...........	-327.56
	2440	2441	5.95923E-001	3.41248E-003	0.00000E+000	5.96550E-001	-1.03471E-004	10	...........	-327.56
	2448	2449	5.87869E-001	3.35015E-003	0.00000E+000	5.88550E-001	-1.07071E-004	10	...........	-327.56
	2456	2457	5.79862E-001	3.23418E-003	0.00000E+000	5.80550E-001	-1.07788E-004	10	...........	-327.56
	2464	2465	5.71934E-001	3.17480E-003	0.00000E+000	5.72550E-001	-1.07238E-004	10	...........	-327.56
	2472	2473	5.63918E-001	3.10274E-003	0.00000E+000	5.64550E-001	-1.08538E-004	10	...........	-327.56
	2480	2481	5.55894E-001	3.09218E-003	0.00000E+000	5.56550E-001	-1.11155E-004	10	...........	-327.56
	2488	2489	5.47952E-001	2.93899E-003	0.00000E+000	5.48550E-001	-1.08421E-004	10	...........	-327.56
	2496	2497	5.39947E-001	2.80390E-003	0.00000E+000	5.40550E-001	-1.07788E-004	10	...........	-327.56
	2504	2505	5.31902E-001	2.86191E-003	0.00000E+000	5.32550E-001	-1.08088E-004	10	...........	-327.56
	2512	2513	5.23964E-001	2.77401E-003	0.00000E+000	5.24550E-001	-1.09838E-004	10	...........	-327.56
	2520	2521	5.15971E-001	2.55467E-003	0.00000E+000	5.16550E-001	-1.09205E-004	10	...........	-327.56
	2528	2529	5.07714E-001	2.35207E-003	0.00000E+000	5.08550E-001	-1.06305E-004	9	...........	-327.56
	2536	2537	4.99697E-001	2.06584E-003	0.00000E+000	5.00550E-001	-1.06788E-004	9	...........	-327.56
	2544	2545	4.91806E-001	1.98655E-003	0.00000E+000	4.92550E-001	-1.05471E-004	9	...........	-327.56
	2552	2553	4.83795E-001	1.90318E-003	0.00000E+000	4.84550E-001	-1.06571E-004	9	...........	-327.56
	2560	2561	4.75755E-001	1.92292E-003	0.00000E+000	4.76550E-001	-1.07288E-004	9	...........	-327.56
	2568	2569	4.67861E-001	1.73339E-003	0.00000E+000	4.68550E-001	-1.06171E-004	9	...........	-327.56
	2576	2577	4.59833E-001	1.64841E-003	0.00000E+000	4.60550E-001	-1.05338E-004	9	...........	-327.56
	2584	2585	4.51826E-001	1.51715E-003	0.00000E+000	4.52550E-001	-1.10838E-004	9	...........	-327.56
	2592	2593	4.43945E-001	1.29245E-003	0.00000E+000	4.44550E-001	-1.08038E-004	9	...........	-327.56
	2600	2601	4.35922E-001	1.17018E-003	0.00000E+000	4.36550E-001	-1.07055E-004	9	...........	-327.56
	2608	2609	4.27904E-001	1.13464E-003	0.00000E+000	4.28550E-001	-1.09038E-004	9	...........	-327.56
	2616	2617	4.19971E-001	1.00344E-003	0.00000E+000	4.20550E-001	-1.12721E-004	9	...........	-327.56
	2624	2625	4.11999E-001	7.71143E-004	0.00000E+000	4.12550E-001	-1.11505E-004	9	...........	-327.56
	2632	2633	4.04003E-001	4.21591E-004	0.00000E+000	4.04550E-001	-1.12538E-004	9	...........	-327.56
	2640	2641	3.96072E-001	2.85870E-004	0.00000E+000	3.96550E-001	-1.17605E-004	9	...........	-327.56
	2648	2649	3.87900E-001	1.82491E-004	0.00000E+000	3.88550E-001	-1.04921E-004	8	...........	-327.56
	2656	2657	3.79908E-001	1.38047E-004	0.00000E+000	3.80550E-001	-1.09355E-004	8	...........	-327.56
	2664	2665	3.71862E-001	1.39686E-004	0.00000E+000	3.72550E-001	-1.09105E-004	8	...........	-327.56
	2672	2673	3.64424E-001	-2.37522E-004	0.00000E+000	3.64550E-001	-9.89881E-005	8	...........	-327.56
	2680	2681	3.56171E-001	-4.86185E-004	0.00000E+000	3.56550E-001	-1.11821E-004	9	...........	-327.56
	2688	2689	3.48141E-001	-4.95574E-004	0.00000E+000	3.48550E-001	-1.12071E-004	9	...........	-327.56
	2696	2697	3.40238E-001	-7.27322E-004	0.00000E+000	3.40550E-001	-1.13521E-004	9	...........	-327.56
	2704	2705	3.32224E-001	-8.62458E-004	0.00000E+000	3.32550E-001	-1.11738E-004	9	...........	-327.56
	2712	2713	3.24220E-001	-9.62037E-004	0.00000E+000	3.24550E-001	-1.14455E-004	9	...........	-327.56
	2720	2721	3.16293E-001	-1.13836E-003	0.00000E+000	3.16550E-001	-1.11388E-004	9	...........	-327.56
	2728	2729	3.08354E-001	-1.62685E-003	0.00000E+000	3.08550E-001	-1.08355E-004	9	...........	-327.56
	2736	2737	3.00350E-001	-1.56932E-003	0.00000E+000	3.00550E-001	-1.10405E-004	9	...........	-327.56
	2744	2745	2.92411E-001	-1.56488E-003	0.00000E+000	2.92550E-001	-1.12121E-004	9	...........	-327.56
	2752	2753	2.84414E-001	-1.66771E-003	0.00000E+000	2.84550E-001	-1.10055E-004	9	...........	-327.56
	2760	2761	2.76386E-001	-1.76430E-003	0.00000E+000	2.76550E-001	-1.10888E-004	9	...........	-327.56
	2768	2769	2.68442E-001	-1.85500E-003	0.00000E+000	2.68550E-001	-1.01421E-004	9	...........	-327.56
	2776	2777	2.60473E-001	-1.97266E-003	0.00000E+000	2.60550E-001	-1.06621E-004	9	...........	-327.56
	2784	2785	2.52449E-001	-2.02517E-003	0.00000E+000	2.52550E-001	-1.06321E-004	9	...........	-327.56
	2792	2793	2.44440E-001	-2.19381E-003	0.00000E+000	2.44550E-001	-1.02955E-004	9	...........	-327.56
	2800	2801	2.36538E-001	-2.21542E-003	0.00000E+000	2.36550E-001	-1.03421E-004	9	...........	-327.56
	2808	2809	2.28516E-001	-2.30381E-003	0.00000E+000	2.28550E-001	-1.06138E-004	9	...........	-327.56
	2816	2817	2.20513E-001	-2.39808E-003	0.00000E+000	2.20550E-001	-1.03488E-004	9	...........	-327.56
	2824	2825	2.12583E-001	-2.44290E-003	0.00000E+000	2.12550E-001	-1.04521E-004	9	...........	-327.56
	2832	2833	2.04594E-001	-2.58053E-003	0.00000E+000	2.04550E-001	-9.95381E-005	9	...........	-327.56
	2840	2841	1.96637E-001	-2.67147E-003	0.00000E+000	1.96550E-001	-9.87881E-005	9	...........	-327.56
	2848	2849	1.88346E-001	-2.75008E-003	0.00000E+000	1.88550E-001	-1.12371E-004	10	...........	-327.56
	2856	2857	1.80328E-001	-2.85368E-003	0.00000E+000	1.80550E-001	-1.14355E-004	10	...........	-327.56
	2864	2865	1.72294E-001	-3.02518E-003	0.00000E+000	1.72550E-001	-1.13171E-004	10	...........	-327.56
	2872	2873	1.64356E-001	-3.09479E-003	0.00000E+000	1.64550E-001	-1.12288E-004	10	...........	-327.56
	2880	2881	1.56346E-001	-3.12187E-003	0.00000E+000	1.56550E-001	-1.12521E-004	10	...........	-327.56
	2888	2889	1.48320E-001	-3.42533E-003	0.00000E+000	1.48550E-001	-1.11038E-004	10	...........	-327.56
	2896	2897	1.40369E-001	-3.40226E-003	0.00000E+000	1.40550E-001	-1.15038E-004	10	...........	-327.56
	2904	2905	1.32389E-001	-3.83465E-003	0.00000E+000	1.32550E-001	-1.14005E-004	10	...........	-327.56
	2912	2913	1.24353E-001	-4.03505E-003	0.00000E+000	1.24550E-001	-1.13271E-004	10	...........	-327.56
	2920	2921	1.16319E-001	-4.17254E-003	0.00000E+000	1.16550E-001	-1.14605E-004	10	...........	-327.56
	2928	2929	1.08412E-001	-4.27266E-003	0.00000E+000	1.08550E-001	-1.13021E-004	10	...........	-327.56
	2936	2937	1.00421E-001	-4.44191E-003	0.00000E+000	1.00550E-001	-1.11405E-004	10	...........	-327.56
	2944	2945	9.23892E-002	-4.56947E-003	0.00000E+000	9.25500E-002	-1.10705E-004	10	...........	-327.56
	2952	2953	8.44793E-002	-4.70811E-003	0.00000E+000	8.45500E-002	-1.13055E-004	10	...........	-327.56
	2960	2961	7.64240E-002	-4.85472E-003	0.00000E+000	7.65500E-002	-1.12038E-004	10	...........	-327.56
	2968	2969	6.84168E-002	-5.05682E-003	0.00000E+000	6.85500E-002	-1.11955E-004	10	...........	-327.56
	2976	2977	6.04993E-002	-5.20965E-003	0.00000E+000	6.05500E-002	-1.11271E-004	10	...........	-327.56
	2984	2985	5.24791E-002	-5.33790E-003	0.00000E+000	5.25500E-002	-1.12155E-004	10	...........	-327.56
	2992	2993	4.44499E-002	-5.43517E-003	0.00000E+000	4.45500E-002	-1.11905E-004	10	...........	-327.56
	3000	3001	3.65331E-002	-5.63807E-003	0.00000E+000	3.65500E-002	-1.08838E-004	10	...........	-327.56
[...]
	10169	10170	5.32227E-001	1.33029E-002	0.00000E+000	5.33000E-001	-1.12638E-004	10	...........	-327.56
	10175	10176	5.38268E-001	1.29276E-002	0.00000E+000	5.39000E-001	-1.07505E-004	10	...........	-327.56
	10181	10182	5.44293E-001	1.29118E-002	0.00000E+000	5.45000E-001	-1.12455E-004	10	...........	-327.56
	10187	10188	5.50284E-001	1.29489E-002	0.00000E+000	5.51000E-001	-1.12955E-004	10	...........	-327.56
	10193	10194	5.56224E-001	1.26973E-002	0.00000E+000	5.57000E-001	-1.10421E-004	10	...........	-327.56
	10199	10200	5.62237E-001	1.27559E-002	0.00000E+000	5.63000E-001	-1.10155E-004	10	...........	-327.56
	10205	10206	5.68269E-001	1.26471E-002	0.00000E+000	5.69000E-001	-1.12388E-004	10	...........	-327.56
	10211	10212	5.74277E-001	1.26100E-002	0.00000E+000	5.75000E-001	-1.11738E-004	10	...........	-327.56
	10217	10218	5.80206E-001	1.25240E-002	0.00000E+000	5.81000E-001	-1.12955E-004	10	...........	-327.56
	10223	10224	5.86222E-001	1.24225E-002	0.00000E+000	5.87000E-001	-1.10821E-004	10	...........	-327.56
	10229	10230	5.92256E-001	1.22928E-002	0.00000E+000	5.93000E-001	-1.11438E-004	10	...........	-327.56
	10235	10236	5.98275E-001	1.24882E-002	0.00000E+000	5.99000E-001	-1.11471E-004	10	...........	-327.56
	10241	10242	6.04184E-001	1.27166E-002	0.00000E+000	6.05000E-001	-1.14005E-004	10	...........	-327.56
	10247	10248	6.10206E-001	1.25121E-002	0.00000E+000	6.11000E-001	-1.12155E-004	10	...........	-327.56
	10253	10254	6.16221E-001	1.25705E-002	0.00000E+000	6.17000E-001	-1.14271E-004	10	...........	-327.56
	10259	10260	6.22254E-001	1.23294E-002	0.00000E+000	6.23000E-001	-1.11855E-004	10	...........	-327.56
	10265	10266	6.28138E-001	1.23020E-002	0.00000E+000	6.29000E-001	-1.14455E-004	10	...........	-327.56
	10271	10272	6.34156E-001	1.23558E-002	0.00000E+000	6.35000E-001	-1.12138E-004	10	...........	-327.56
	10277	10278	6.40193E-001	1.24650E-002	0.00000E+000	6.41000E-001	-1.12971E-004	10	...........	-327.56
	10283	10284	6.46211E-001	1.26881E-002	0.00000E+000	6.47000E-001	-1.08721E-004	10	...........	-327.56
	10289	10290	6.52198E-001	1.26761E-002	0.00000E+000	6.53000E-001	-1.12821E-004	10	...........	-327.56
	10295	10296	6.58150E-001	1.22702E-002	0.00000E+000	6.59000E-001	-1.10905E-004	10	...........	-327.56
	10301	10302	6.64166E-001	1.27244E-002	0.00000E+000	6.65000E-001	-1.14305E-004	10	...........	-327.56
	10307	10308	6.70199E-001	1.26429E-002	0.00000E+000	6.71000E-001	-1.13938E-004	10	...........	-327.56
	10313	10314	6.76191E-001	1.27937E-002	0.00000E+000	6.77000E-001	-1.12688E-004	10	...........	-327.56
	10319	10320	6.82113E-001	1.26744E-002	0.00000E+000	6.83000E-001	-1.13738E-004	10	...........	-327.56
	10325	10326	6.88137E-001	1.27280E-002	0.00000E+000	6.89000E-001	-1.15088E-004	10	...........	-327.56
	10331	10332	6.94170E-001	1.27626E-002	0.00000E+000	6.95000E-001	-1.12288E-004	10	...........	-327.56
	10337	10338	7.00180E-001	1.26222E-002	0.00000E+000	7.01000E-001	-1.15038E-004	10	...........	-327.56
	10343	10344	7.06098E-001	1.28248E-002	0.00000E+000	7.07000E-001	-1.12388E-004	10	...........	-327.56
	10349	10350	7.12128E-001	1.26726E-002	0.00000E+000	7.13000E-001	-1.16388E-004	10	...........	-327.56
	10355	10356	7.18110E-001	1.27813E-002	0.00000E+000	7.19000E-001	-1.15455E-004	10	...........	-327.56
	10361	10362	7.24106E-001	1.28177E-002	0.00000E+000	7.25000E-001	-1.13421E-004	10	...........	-327.56
	10367	10368	7.30002E-001	1.28083E-002	0.00000E+000	7.31000E-001	-1.11288E-004	10	...........	-327.56
	10373	10374	7.36061E-001	1.27240E-002	0.00000E+000	7.37000E-001	-1.13955E-004	10	...........	-327.56
	10379	10380	7.42051E-001	1.27056E-002	0.00000E+000	7.43000E-001	-1.13138E-004	10	...........	-327.56
	10385	10386	7.48101E-001	1.29716E-002	0.00000E+000	7.49000E-001	-1.14821E-004	10	...........	-327.56
	10391	10392	7.54111E-001	1.27146E-002	0.00000E+000	7.55000E-001	-1.10555E-004	10	...........	-327.56
	10397	10398	7.60022E-001	1.27432E-002	0.00000E+000	7.61000E-001	-1.14538E-004	10	...........	-327.56
	10403	10404	7.66051E-001	1.28556E-002	0.00000E+000	7.67000E-001	-1.10805E-004	10	...........	-327.56
	10409	10410	7.72067E-001	1.30399E-002	0.00000E+000	7.73000E-001	-1.13388E-004	10	...........	-327.56
	10415	10416	7.78079E-001	1.32400E-002	0.00000E+000	7.79000E-001	-1.12271E-004	10	...........	-327.56
	10421	10422	7.83977E-001	1.31353E-002	0.00000E+000	7.85000E-001	-1.14105E-004	10	...........	-327.56
	10427	10428	7.90005E-001	1.32978E-002	0.00000E+000	7.91000E-001	-1.13055E-004	10	...........	-327.56
	10433	10434	7.96047E-001	1.33489E-002	0.00000E+000	7.97000E-001	-1.12971E-004	10	...........	-327.56
	10439	10440	8.02067E-001	1.34489E-002	0.00000E+000	8.03000E-001	-1.14671E-004	10	...........	-327.56
	10445	10446	8.07954E-001	1.34492E-002	0.00000E+000	8.09000E-001	-1.13238E-004	10	...........	-327.56
	10451	10452	8.13991E-001	1.35239E-002	0.00000E+000	8.15000E-001	-1.14071E-004	10	...........	-327.56
	10457	10458	8.19981E-001	1.30832E-002	0.00000E+000	8.21000E-001	-1.11805E-004	10	...........	-327.56
	10463	10464	8.26011E-001	1.31766E-002	0.00000E+000	8.27000E-001	-1.10005E-004	10	...........	-327.56
	10469	10470	8.31988E-001	1.32768E-002	0.00000E+000	8.33000E-001	-1.11955E-004	10	...........	-327.56
	10475	10476	8.37944E-001	1.32622E-002	0.00000E+000	8.39000E-001	-1.12938E-004	10	...........	-327.56
	10481	10482	8.43940E-001	1.35908E-002	0.00000E+000	8.45000E-001	-1.08371E-004	10	...........	-327.56
	10487	10488	8.49987E-001	1.34895E-002	0.00000E+000	8.51000E-001	-1.12088E-004	10	...........	-327.56
	10493	10494	8.55983E-001	1.33184E-002	0.00000E+000	8.57000E-001	-1.14038E-004	10	...........	-327.56
	10499	10500	8.61929E-001	1.31051E-002	0.00000E+000	8.63000E-001	-1.13388E-004	10	...........	-327.56
	10505	10506	8.67944E-001	1.29997E-002	0.00000E+000	8.69000E-001	-1.09555E-004	10	...........	-327.56
	10511	10512	8.73970E-001	1.32091E-002	0.00000E+000	8.75000E-001	-1.12855E-004	10	...........	-327.56
	10517	10518	8.79959E-001	1.32790E-002	0.00000E+000	8.81000E-001	-1.10538E-004	10	...........	-327.56
	10523	10524	8.85881E-001	1.31766E-002	0.00000E+000	8.87000E-001	-1.11821E-004	10	...........	-327.56
	10529	10530	8.91917E-001	1.30125E-002	0.00000E+000	8.93000E-001	-1.10888E-004	10	...........	-327.56
	10535	10536	8.97946E-001	1.34316E-002	0.00000E+000	8.99000E-001	-1.10155E-004	10	...........	-327.56
	10541	10542	9.03959E-001	1.27377E-002	0.00000E+000	9.05000E-001	-1.11988E-004	10	...........	-327.56
	10547	10548	9.09859E-001	1.28895E-002	0.00000E+000	9.11000E-001	-1.13738E-004	10	...........	-327.56
	10553	10554	9.15904E-001	1.26226E-002	0.00000E+000	9.17000E-001	-1.10038E-004	10	...........	-327.56
	10559	10560	9.21880E-001	1.25676E-002	0.00000E+000	9.23000E-001	-1.11255E-004	10	...........	-327.56
	10565	10566	9.27920E-001	1.24434E-002	0.00000E+000	9.29000E-001	-1.10221E-004	10	...........	-327.56
	10571	10572	9.33885E-001	1.24544E-002	0.00000E+000	9.35000E-001	-1.13538E-004	10	...........	-327.56
	10577	10578	9.39843E-001	1.22396E-002	0.00000E+000	9.41000E-001	-1.10371E-004	10	...........	-327.56
	10583	10584	9.45858E-001	1.21851E-002	0.00000E+000	9.47000E-001	-1.11255E-004	10	...........	-327.56
	10589	10590	9.51912E-001	1.20410E-002	0.00000E+000	9.53000E-001	-1.13171E-004	10	...........	-327.56
	10595	10596	9.57887E-001	1.18001E-002	0.00000E+000	9.59000E-001	-1.13855E-004	10	...........	-327.56
	10601	10602	9.63829E-001	1.17302E-002	0.00000E+000	9.65000E-001	-1.09805E-004	10	...........	-327.56
	10607	10608	9.69851E-001	1.18294E-002	0.00000E+000	9.71000E-001	-1.07471E-004	10	...........	-327.56
	10613	10614	9.75894E-001	1.18246E-002	0.00000E+000	9.77000E-001	-1.12221E-004	10	...........	-327.56
	10619	10620	9.81871E-001	1.18245E-002	0.00000E+000	9.83000E-001	-1.11655E-004	10	...........	-327.56
	10625	10626	9.87796E-001	1.21806E-002	0.00000E+000	9.89000E-001	-1.12921E-004	10	...........	-327.56
	10631	10632	9.93830E-001	1.20649E-002	0.00000E+000	9.95000E-001	-1.12505E-004	10	...........	-327.56
	10637	10638	9.99892E-001	1.21014E-002	0.00000E+000	1.00100E+000	-1.11055E-004	10	...........	-327.56
	10643	10644	1.00585E+000	1.21931E-002	0.00000E+000	1.00700E+000	-1.11805E-004	10	...........	-327.56
	10649	10650	1.01177E+000	1.21401E-002	0.00000E+000	1.01300E+000	-1.11671E-004	10	...........	-327.56
	10655	10656	1.01781E+000	1.20800E-002	0.00000E+000	1.01900E+000	-1.11205E-004	10	...........	-327.56
	10661	10662	1.02385E+000	1.23365E-002	0.00000E+000	1.02500E+000	-1.12205E-004	10	...........	-327.56
	10667	10668	1.02983E+000	1.25578E-002	0.00000E+000	1.03100E+000	-1.12738E-004	10	...........	-327.56
	10673	10674	1.03584E+000	1.30704E-002	0.00000E+000	1.03700E+000	-1.09705E-004	10	...........	-327.56
	10679	10680	1.04177E+000	1.30988E-002	0.00000E+000	1.04300E+000	-1.13505E-004	10	...........	-327.56
	10685	10686	1.04780E+000	1.32145E-002	0.00000E+000	1.04900E+000	-1.12188E-004	10	...........	-327.56
	10691	10692	1.05380E+000	1.33847E-002	0.00000E+000	1.05500E+000	-1.13588E-004	10	...........	-327.56
	10697	10698	1.05982E+000	1.36175E-002	0.00000E+000	1.06100E+000	-1.08638E-004	10	...........	-327.56
	10703	10704	1.06575E+000	1.34961E-002	0.00000E+000	1.06700E+000	-1.10238E-004	10	...........	-327.56
	10709	10710	1.07175E+000	1.38477E-002	0.00000E+000	1.07300E+000	-1.12605E-004	10	...........	-327.56
	10715	10716	1.07777E+000	1.42012E-002	0.00000E+000	1.07900E+000	-1.14338E-004	10	...........	-327.56
	10721	10722	1.08377E+000	1.44078E-002	0.00000E+000	1.08500E+000	-1.12538E-004	10	...........	-327.56
	10727	10728	1.08965E+000	1.46032E-002	0.00000E+000	1.09100E+000	-1.15705E-004	10	...........	-327.56
	10733	10734	1.09570E+000	1.48327E-002	0.00000E+000	1.09700E+000	-1.14655E-004	10	...........	-327.56
	10739	10740	1.10173E+000	1.49740E-002	0.00000E+000	1.10300E+000	-1.10921E-004	10	...........	-327.56
	10745	10746	1.10775E+000	1.49068E-002	0.00000E+000	1.10900E+000	-1.08205E-004	10	...........	-327.56
	10751	10752	1.11371E+000	1.47964E-002	0.00000E+000	1.11500E+000	-1.14038E-004	10	...........	-327.56
	10757	10758	1.11968E+000	1.46429E-002	0.00000E+000	1.12100E+000	-1.11905E-004	10	...........	-327.56
	10763	10764	1.12571E+000	1.45416E-002	0.00000E+000	1.12700E+000	-1.15021E-004	10	...........	-327.56
	10769	10770	1.13170E+000	1.43446E-002	0.00000E+000	1.13300E+000	-1.09421E-004	10	...........	-327.56
	10775	10776	1.13770E+000	1.39942E-002	0.00000E+000	1.13900E+000	-1.13421E-004	10	...........	-327.56
	10781	10782	1.14362E+000	1.38064E-002	0.00000E+000	1.14500E+000	-1.11238E-004	10	...........	-327.56
	10787	10788	1.14965E+000	1.36181E-002	0.00000E+000	1.15100E+000	-1.11021E-004	10	...........	-327.56
	10793	10794	1.15569E+000	1.33871E-002	0.00000E+000	1.15700E+000	-1.11771E-004	10	...........	-327.56
	10799	10800	1.16170E+000	1.32777E-002	0.00000E+000	1.16300E+000	-1.12855E-004	10	...........	-327.56
	10805	10806	1.16761E+000	1.34595E-002	0.00000E+000	1.16900E+000	-1.11255E-004	10	...........	-327.56
	10811	10812	1.17364E+000	1.31728E-002	0.00000E+000	1.17500E+000	-1.13988E-004	10	...........	-327.56
	10817	10818	1.17966E+000	1.32090E-002	0.00000E+000	1.18100E+000	-1.11071E-004	10	...........	-327.56
	10823	10824	1.18567E+000	1.32907E-002	0.00000E+000	1.18700E+000	-1.11838E-004	10	...........	-327.56
	10829	10830	1.19158E+000	1.37175E-002	0.00000E+000	1.19300E+000	-1.12055E-004	10	...........	-327.56
	10835	10836	1.19760E+000	1.40397E-002	0.00000E+000	1.19900E+000	-1.11571E-004	10	...........	-327.56
	10841	10842	1.20361E+000	1.46126E-002	0.00000E+000	1.20500E+000	-1.12038E-004	10	...........	-327.56
	10847	10848	1.20964E+000	1.49973E-002	0.00000E+000	1.21100E+000	-1.11371E-004	10	...........	-327.56
	10853	10854	1.21560E+000	1.60156E-002	0.00000E+000	1.21700E+000	-1.08721E-004	10	...........	-327.56
	10859	10860	1.22155E+000	1.69554E-002	0.00000E+000	1.22300E+000	-1.12188E-004	10	...........	-327.56
	10865	10866	1.22754E+000	1.86574E-002	0.00000E+000	1.22900E+000	-1.10121E-004	10	...........	-327.56
	10871	10872	1.23355E+000	2.00072E-002	0.00000E+000	1.23500E+000	-1.13105E-004	10	...........	-327.56
	10877	10878	1.23953E+000	2.15125E-002	0.00000E+000	1.24100E+000	-1.07988E-004	10	...........	-327.56
	10883	10884	1.24545E+000	2.32566E-002	0.00000E+000	1.24700E+000	-1.07788E-004	10	...........	-327.56
	10889	10890	1.25146E+000	2.52179E-002	0.00000E+000	1.25300E+000	-1.09788E-004	10	...........	-327.56
	10895	10896	1.25778E+000	2.76880E-002	0.00000E+000	1.25900E+000	-1.13388E-004	11	...........	-327.56
	10901	10902	1.26376E+000	2.96445E-002	0.00000E+000	1.26500E+000	-1.10071E-004	11	...........	-327.56
	10907	10908	1.26966E+000	3.21785E-002	0.00000E+000	1.27100E+000	-1.14338E-004	11	...........	-327.56
	10913	10914	1.27569E+000	3.50338E-002	0.00000E+000	1.27700E+000	-1.10371E-004	11	...........	-327.56
	10919	10920	1.28172E+000	3.66117E-002	0.00000E+000	1.28300E+000	-1.13471E-004	11	...........	-327.56
	10925	10926	1.28773E+000	3.93146E-002	0.00000E+000	1.28900E+000	-1.12321E-004	11	...........	-327.56
	10931	10932	1.29362E+000	4.27207E-002	0.00000E+000	1.29500E+000	-1.13621E-004	11	...........	-327.56
	10937	10938	1.29963E+000	4.66187E-002	0.00000E+000	1.30100E+000	-1.11621E-004	11	...........	-327.56
	10943	10944	1.30565E+000	5.08897E-002	0.00000E+000	1.30700E+000	-1.13621E-004	11	...........	-327.56
	10949	10950	1.31167E+000	5.61859E-002	0.00000E+000	1.31300E+000	-1.11471E-004	11	...........	-327.56
	10955	10956	1.31765E+000	6.16165E-002	0.00000E+000	1.31900E+000	-1.14271E-004	11	...........	-327.56
	10961	10962	1.32359E+000	6.70974E-002	0.00000E+000	1.32500E+000	-1.12355E-004	11	...........	-327.56
	10967	10968	1.32959E+000	7.60336E-002	0.00000E+000	1.33100E+000	-1.11771E-004	11	...........	-327.56
	10973	10974	1.33555E+000	8.46136E-002	0.00000E+000	1.33700E+000	-1.13205E-004	11	...........	-327.56
	10979	10980	1.34155E+000	9.17254E-002	0.00000E+000	1.34300E+000	-1.09271E-004	11	...........	-327.56
	10985	10986	1.34748E+000	9.80048E-002	0.00000E+000	1.34900E+000	-1.10505E-004	11	...........	-327.56
	10991	10992	1.35353E+000	1.03911E-001	0.00000E+000	1.35500E+000	-1.12355E-004	11	...........	-327.56
	10997	10998	1.35951E+000	1.11451E-001	0.00000E+000	1.36100E+000	-1.08671E-004	11	...........	-327.56
	11003	11004	1.36550E+000	1.21294E-001	0.00000E+000	1.36700E+000	-1.08338E-004	11	...........	-327.56
	11009	11010	1.37140E+000	1.29347E-001	0.00000E+000	1.37300E+000	-1.10921E-004	11	...........	-327.56
	11015	11016	1.37748E+000	1.37527E-001	0.00000E+000	1.37900E+000	-1.10688E-004	11	...........	-327.56
	11021	11022	1.38341E+000	1.47183E-001	0.00000E+000	1.38500E+000	-1.10105E-004	11	...........	-327.56
	11027	11028	1.38944E+000	1.51575E-001	0.00000E+000	1.39100E+000	-1.08821E-004	11	...........	-327.56
	11033	11034	1.39536E+000	1.56943E-001	0.00000E+000	1.39700E+000	-1.10221E-004	11	...........	-327.56
	11039	11040	1.40136E+000	1.65900E-001	0.00000E+000	1.40300E+000	-1.10138E-004	11	...........	-327.56
	11045	11046	1.40734E+000	1.74393E-001	0.00000E+000	1.40900E+000	-1.12488E-004	11	...........	-327.56
	11051	11052	1.41337E+000	1.84022E-001	0.00000E+000	1.41500E+000	-1.07938E-004	11	...........	-327.56
	11057	11058	1.41934E+000	1.93232E-001	0.00000E+000	1.42100E+000	-1.12221E-004	11	...........	-327.56
	11063	11064	1.42527E+000	2.01270E-001	0.00000E+000	1.42700E+000	-1.12805E-004	11	...........	-327.56
	11069	11070	1.43126E+000	2.08907E-001	0.00000E+000	1.43300E+000	-1.07955E-004	11	...........	-327.56
	11075	11076	1.43725E+000	2.16786E-001	0.00000E+000	1.43900E+000	-1.08621E-004	11	...........	-327.56
	11081	11082	1.44326E+000	2.24493E-001	0.00000E+000	1.44500E+000	-1.09821E-004	11	...........	-327.56
	11087	11088	1.44917E+000	2.33997E-001	0.00000E+000	1.45100E+000	-1.09621E-004	11	...........	-327.56
	11093	11094	1.45517E+000	2.41062E-001	0.00000E+000	1.45700E+000	-1.07438E-004	11	...........	-327.56
	11099	11100	1.46119E+000	2.49025E-001	0.00000E+000	1.46300E+000	-1.09888E-004	11	...........	-327.56
	11105	11106	1.46718E+000	2.56863E-001	0.00000E+000	1.46900E+000	-1.09621E-004	11	...........	-327.56
	11111	11112	1.47307E+000	2.66514E-001	0.00000E+000	1.47500E+000	-1.08838E-004	11	...........	-327.56
	11117	11118	1.47940E+000	2.76762E-001	0.00000E+000	1.48100E+000	-1.17305E-004	12	...........	-327.56
	11123	11124	1.48540E+000	2.79816E-001	0.00000E+000	1.48700E+000	-1.11921E-004	12	...........	-327.56
	11129	11130	1.49144E+000	2.89144E-001	0.00000E+000	1.49300E+000	-1.12255E-004	12	...........	-327.56
	11135	11136	1.49741E+000	3.17815E-001	0.00000E+000	1.49900E+000	-1.11371E-004	12	...........	-327.56
	11141	11142	1.50335E+000	3.18275E-001	0.00000E+000	1.50500E+000	-1.13971E-004	12	...........	-327.56
	11147	11148	1.50934E+000	3.30462E-001	0.00000E+000	1.51100E+000	-1.15371E-004	12	...........	-327.56
	11153	11154	1.51538E+000	3.43895E-001	0.00000E+000	1.51700E+000	-1.13471E-004	12	...........	-327.56
	11159	11160	1.52137E+000	3.61376E-001	0.00000E+000	1.52300E+000	-1.11271E-004	12	...........	-327.56
	11165	11166	1.52729E+000	3.64921E-001	0.00000E+000	1.52900E+000	-1.12071E-004	12	...........	-327.56
	11171	11172	1.53329E+000	3.76094E-001	0.00000E+000	1.53500E+000	-1.10555E-004	12	...........	-327.56
	11177	11178	1.53927E+000	3.92472E-001	0.00000E+000	1.54100E+000	-1.09321E-004	12	...........	-327.56
	11183	11184	1.54528E+000	4.01861E-001	0.00000E+000	1.54700E+000	-1.13221E-004	12	...........	-327.56
	11189	11190	1.55117E+000	4.33439E-001	0.00000E+000	1.55300E+000	-1.14021E-004	12	...........	-327.56
	11195	11196	1.55718E+000	4.47944E-001	0.00000E+000	1.55900E+000	-1.11005E-004	12	...........	-327.56
	11201	11202	1.56320E+000	4.72443E-001	0.00000E+000	1.56500E+000	-1.12988E-004	12	...........	-327.56
	11207	11208	1.56920E+000	4.81224E-001	0.00000E+000	1.57100E+000	-1.12988E-004	12	...........	-327.56
	11213	11214	1.57509E+000	4.93565E-001	0.00000E+000	1.57700E+000	-1.13871E-004	12	...........	-327.56
	11219	11220	1.58113E+000	5.10685E-001	0.00000E+000	1.58300E+000	-1.08205E-004	12	...........	-327.56
	11225	11226	1.58713E+000	5.30528E-001	0.00000E+000	1.58900E+000	-1.10955E-004	12	...........	-327.56
	11231	11232	1.59314E+000	5.38988E-001	0.00000E+000	1.59500E+000	-1.10921E-004	12	...........	-327.56
	11237	11238	1.59912E+000	5.64121E-001	0.00000E+000	1.60100E+000	-1.12538E-004	12	...........	-327.56
	11243	11244	1.60504E+000	5.82775E-001	0.00000E+000	1.60700E+000	-1.14705E-004	12	...........	-327.56
	11249	11250	1.61110E+000	5.92559E-001	0.00000E+000	1.61300E+000	-1.13805E-004	12	...........	-327.56
	11255	11256	1.61709E+000	6.06311E-001	0.00000E+000	1.61900E+000	-1.13571E-004	12	...........	-327.56
	11261	11262	1.62309E+000	6.14537E-001	0.00000E+000	1.62500E+000	-1.10038E-004	12	...........	-327.56
	11267	11268	1.62901E+000	6.32860E-001	0.00000E+000	1.63100E+000	-1.12488E-004	12	...........	-327.56
	11273	11274	1.63506E+000	6.52838E-001	0.00000E+000	1.63700E+000	-1.11888E-004	12	...........	-327.56
	11279	11280	1.64102E+000	6.68713E-001	0.00000E+000	1.64300E+000	-1.11371E-004	12	...........	-327.56
	11285	11286	1.64701E+000	6.90144E-001	0.00000E+000	1.64900E+000	-1.11538E-004	12	...........	-327.56
	11291	11292	1.65293E+000	7.06248E-001	0.00000E+000	1.65500E+000	-1.13421E-004	12	...........	-327.56
	11297	11298	1.65897E+000	7.13862E-001	0.00000E+000	1.66100E+000	-1.15105E-004	12	...........	-327.56
	11303	11304	1.66496E+000	7.31030E-001	0.00000E+000	1.66700E+000	-1.12705E-004	12	...........	-327.56
	11309	11310	1.67097E+000	7.37857E-001	0.00000E+000	1.67300E+000	-1.07771E-004	12	...........	-327.56
	11315	11316	1.67692E+000	7.52454E-001	0.00000E+000	1.67900E+000	-1.12188E-004	12	...........	-327.56
	11321	11322	1.68289E+000	7.72509E-001	0.00000E+000	1.68500E+000	-1.10421E-004	12	...........	-327.56
	11327	11328	1.68890E+000	7.71617E-001	0.00000E+000	1.69100E+000	-1.12155E-004	12	...........	-327.56
	11333	11334	1.69492E+000	7.92558E-001	0.00000E+000	1.69700E+000	-1.12638E-004	12	...........	-327.56
	11336	11337	1.69790E+000	8.11048E-001	0.00000E+000	1.70000E+000	-1.13505E-004	12	...........	-327.56