File: testing/data/240902_16_MCL13_cswWE_CV10_750C_CO2.DTA
EXPLAIN
TAG	CV
TITLE	LABEL	Cyclic Voltammetry	Test Identifier
DATE	LABEL	9/3/2024	Date
TIME	LABEL	16:34:03	Time
NOTES	NOTES	5	Notes...
	cswWE - carbon steel wire
cspWE - carbon steel plate 2x2 tapered

Carbon steel plate counter electrode
Carbon steel wire reference electrode
PSTAT	PSTAT	REF3000-48128	Potentiostat
VINIT	POTEN	0.00000E+000	T	Initial E (V)
VLIMIT1	POTEN	1.70000E+000	F	Scan Limit 1 (V)
VLIMIT2	POTEN	-1.00000E+000	F	Scan Limit 2 (V)
VFINAL	POTEN	1.70000E+000	F	Final E (V)
SCANRATE	QUANT	9.99998E+000	Scan Rate (mV/s)
STEPSIZE	QUANT	1.00000E+000	Step Size (mV)
CYCLES	IQUANT	4	Cycles (#)
IMODE	SELECTOR	0	I/E Range Mode
IRANGE	QUANT	3.00000E-001	Max Current (mA)
AREA	QUANT	1.00000E+000	Sample Area (cm^2)
EQDELAY	QUANT	0.00000E+000	Equil. Time (s)
IRCOMP	SELECTOR	0	IRComp
PFCOR	QUANT	5.00000E+001	PF Corr. (ohm)
SAMPLINGMODE	SELECTOR	1	Sampling Mode
EOC	QUANT	0.2743672	Open Circuit (V)
ELECTRODETYPE	SELECTOR	0	Electrode Type
STRIPPING	TOGGLE	F	Used for Stripping
SEQUENCER	TOGGLE	TRUE	Run as Sequence
PSTATMODEL	IQUANT	5	Pstat Model
PSTATSECTION	LABEL	REF3000-48128	Pstat Section
PSTATSERIALNO	LABEL	48128	Pstat Serial Number
CTRLMODE	IQUANT	1	Control Mode
ELECTROMETER	IQUANT	0	RE=0 or CS=1
IESTAB	IQUANT	2	I/E Stability
CASPEED	IQUANT	4	Control Amp Speed
CONVENTION	IQUANT	1	Current Convention
ICHRANGE	IQUANT	2	Ich Range
ICHRANGEMODE	TOGGLE	F	Ich Auto Range
ICHOFFSETENABLE	TOGGLE	F	Ich Offset Enable
ICHOFFSET	QUANT	0	Ich Offset (V)
ICHFILTER	IQUANT	2	Ich Filter
VCHRANGE	IQUANT	2	Vch Range
VCHRANGEMODE	TOGGLE	F	Vch Auto Range
VCHOFFSETENABLE	TOGGLE	F	Vch Offset Enable
VCHOFFSET	QUANT	0	Vch Offset (V)
VCHFILTER	IQUANT	2	Vch Filter
ACHRANGE	IQUANT	2	Ach Range
ACHOFFSETENABLE	TOGGLE	F	Ach Offset Enable
ACHOFFSET	QUANT	0	Ach Offset (V)
ACHFILTER	IQUANT	1	Ach Filter
IERANGELOWERLIMIT	IQUANT	2	I/E Range Lower Limit
IERANGEMODE	TOGGLE	T	I/E AutoRange
IERANGE	IQUANT	9	I/E Range
POSFEEDENABLE	TOGGLE	F	Positive Feedback IR Comp
POSFEEDRESISTANCE	QUANT	0	Positive Feedback Resistance (ohm)
ACHSELECT	IQUANT	4	Ach Select
SENSECABLEID	IQUANT	14	Sense Cable ID
PWRCABLEID	IQUANT	7	Power Cable ID
DCCALDATE	LABEL	8/16/2024	DC Calibration Date
ACCALDATE	LABEL	8/16/2024	AC Calibration Date
THERMOSELECT	IQUANT	1	Thermo Select
FRAMEWORKVERSION	LABEL	7.10.3	Framework Version
INSTRUMENTVERSION	LABEL	4.91	Instrument Version
COMMVERSION	LABEL	5.10	Communications Version
CPUPLDVERSION	LABEL	6.00	CPU PLD Version
CTRLPLDVERSION	LABEL	3.21	CTRL PLD Version
PSTATPLDVERSION	LABEL	0.00	PSTAT PLD Version
COMPLIANCEVOLTAGE	IQUANT	0	Compliance Voltage
CURVE1	TABLE
	Pt	T	Vf	Im	Vu	Sig	Ach	IERange	Over	Temp
	#	s	V vs. Ref.	A	V	V	V	#	bits	deg C
	0	0.1	2.73944E-001	1.11027E-004	0.00000E+000	2.74350E-001	-1.14088E-004	9	...........	-327.56
	9	1	2.82913E-001	6.83081E-004	0.00000E+000	2.83350E-001	-1.11888E-004	9	...........	-327.56
	18	1.9	2.91869E-001	1.24170E-003	0.00000E+000	2.92350E-001	-1.06088E-004	9	...........	-327.56
	27	2.8	3.00743E-001	1.86873E-003	0.00000E+000	3.01350E-001	-1.12888E-004	9	...........	-327.56
	36	3.7	3.09643E-001	2.39146E-003	0.00000E+000	3.10350E-001	-1.13088E-004	9	...........	-327.56
	45	4.6	3.18940E-001	2.93155E-003	0.00000E+000	3.19350E-001	-1.14288E-004	10	...........	-327.56
	54	5.5	3.27913E-001	3.63353E-003	0.00000E+000	3.28350E-001	-1.14488E-004	10	...........	-327.56
	63	6.4	3.36899E-001	4.33575E-003	0.00000E+000	3.37350E-001	-1.15088E-004	10	...........	-327.56
	72	7.3	3.45799E-001	5.08678E-003	0.00000E+000	3.46350E-001	-1.13888E-004	10	...........	-327.56
	81	8.2	3.54812E-001	5.84935E-003	0.00000E+000	3.55350E-001	-1.08888E-004	10	...........	-327.56
	90	9.1	3.63833E-001	6.72436E-003	0.00000E+000	3.64350E-001	-1.08888E-004	10	...........	-327.56
	99	10	3.72740E-001	7.59090E-003	0.00000E+000	3.73350E-001	-1.19688E-004	10	...........	-327.56
	108	10.9	3.81768E-001	8.46566E-003	0.00000E+000	3.82350E-001	-1.14888E-004	10	...........	-327.56
	117	11.8	3.90796E-001	9.47044E-003	0.00000E+000	3.91350E-001	-1.13888E-004	10	...........	-327.56
	126	12.7	3.99721E-001	1.03081E-002	0.00000E+000	4.00350E-001	-1.13088E-004	10	...........	-327.56
	135	13.6	4.08716E-001	1.13260E-002	0.00000E+000	4.09350E-001	-1.09088E-004	10	...........	-327.56
	144	14.5	4.17770E-001	1.20557E-002	0.00000E+000	4.18350E-001	-1.12288E-004	10	...........	-327.56
	153	15.4	4.26666E-001	1.33352E-002	0.00000E+000	4.27350E-001	-1.16688E-004	10	...........	-327.56
	162	16.3	4.35677E-001	1.43261E-002	0.00000E+000	4.36350E-001	-1.14288E-004	10	...........	-327.56
	171	17.2	4.44711E-001	1.45681E-002	0.00000E+000	4.45350E-001	-1.19088E-004	10	...........	-327.56
	180	18.1	4.53623E-001	1.53101E-002	0.00000E+000	4.54350E-001	-1.08288E-004	10	...........	-327.56
	189	19	4.62652E-001	1.57618E-002	0.00000E+000	4.63350E-001	-1.10088E-004	10	...........	-327.56
	198	19.9	4.71656E-001	1.63422E-002	0.00000E+000	4.72350E-001	-1.12888E-004	10	...........	-327.56
	207	20.8	4.80594E-001	1.66726E-002	0.00000E+000	4.81350E-001	-1.16688E-004	10	...........	-327.56
	216	21.7	4.89639E-001	1.68262E-002	0.00000E+000	4.90350E-001	-1.16888E-004	10	...........	-327.56
	225	22.6	4.98612E-001	1.68535E-002	0.00000E+000	4.99350E-001	-1.16088E-004	10	...........	-327.56
	234	23.5	5.07576E-001	1.68693E-002	0.00000E+000	5.08350E-001	-1.07488E-004	10	...........	-327.56
	243	24.4	5.16604E-001	1.68565E-002	0.00000E+000	5.17350E-001	-1.11288E-004	10	...........	-327.56
	252	25.3	5.25484E-001	1.66963E-002	0.00000E+000	5.26350E-001	-1.12688E-004	10	...........	-327.56
	261	26.2	5.34545E-001	1.65650E-002	0.00000E+000	5.35350E-001	-1.24488E-004	10	...........	-327.56
	270	27.1	5.43579E-001	1.64915E-002	0.00000E+000	5.44350E-001	-1.19888E-004	10	...........	-327.56
	279	28	5.52496E-001	1.62862E-002	0.00000E+000	5.53350E-001	-1.20288E-004	10	...........	-327.56
	288	28.9	5.61534E-001	1.60780E-002	0.00000E+000	5.62350E-001	-1.32488E-004	10	...........	-327.56
	297	29.8	5.70573E-001	1.54765E-002	0.00000E+000	5.71350E-001	-1.16488E-004	10	...........	-327.56
	306	30.7	5.79500E-001	1.53259E-002	0.00000E+000	5.80350E-001	-1.16288E-004	10	...........	-327.56
	315	31.6	5.88524E-001	1.54341E-002	0.00000E+000	5.89350E-001	-1.23088E-004	10	...........	-327.56
	324	32.5	5.97562E-001	1.52355E-002	0.00000E+000	5.98350E-001	-1.22888E-004	10	...........	-327.56
	333	33.4	6.06507E-001	1.48514E-002	0.00000E+000	6.07350E-001	-1.20688E-004	10	...........	-327.56
	342	34.3	6.15517E-001	1.44119E-002	0.00000E+000	6.16350E-001	-1.19088E-004	10	...........	-327.56
	351	35.2	6.24545E-001	1.45257E-002	0.00000E+000	6.25350E-001	-1.16688E-004	10	...........	-327.56
	360	36.1	6.33521E-001	1.43681E-002	0.00000E+000	6.34350E-001	-1.22088E-004	10	...........	-327.56
	369	37	6.42502E-001	1.41017E-002	0.00000E+000	6.43350E-001	-1.20488E-004	10	...........	-327.56
	378	37.9	6.51543E-001	1.38003E-002	0.00000E+000	6.52350E-001	-1.16288E-004	10	...........	-327.56
	387	38.8	6.60480E-001	1.37163E-002	0.00000E+000	6.61350E-001	-1.28688E-004	10	...........	-327.56
	396	39.7	6.69512E-001	1.30792E-002	0.00000E+000	6.70350E-001	-1.17288E-004	10	...........	-327.56
	405	40.6	6.78477E-001	1.32280E-002	0.00000E+000	6.79350E-001	-1.27688E-004	10	...........	-327.56
	414	41.5	6.87448E-001	1.30599E-002	0.00000E+000	6.88350E-001	-1.23888E-004	10	...........	-327.56
	423	42.4	6.96497E-001	1.29284E-002	0.00000E+000	6.97350E-001	-1.25088E-004	10	...........	-327.56
	432	43.3	7.05501E-001	1.28333E-002	0.00000E+000	7.06350E-001	-1.21088E-004	10	...........	-327.56
	441	44.2	7.14447E-001	1.29314E-002	0.00000E+000	7.15350E-001	-1.24888E-004	10	...........	-327.56
	450	45.1	7.23461E-001	1.27072E-002	0.00000E+000	7.24350E-001	-1.20088E-004	10	...........	-327.56
	459	46	7.32371E-001	1.26326E-002	0.00000E+000	7.33350E-001	-1.14888E-004	10	...........	-327.56
	468	46.9	7.41396E-001	1.25501E-002	0.00000E+000	7.42350E-001	-1.14288E-004	10	...........	-327.56
	477	47.8	7.50441E-001	1.25232E-002	0.00000E+000	7.51350E-001	-1.28288E-004	10	...........	-327.56
	486	48.7	7.59366E-001	1.24950E-002	0.00000E+000	7.60350E-001	-1.19088E-004	10	...........	-327.56
	495	49.6	7.68381E-001	1.24725E-002	0.00000E+000	7.69350E-001	-1.21288E-004	10	...........	-327.56
	504	50.5	7.77443E-001	1.24751E-002	0.00000E+000	7.78350E-001	-1.18888E-004	10	...........	-327.56
	513	51.4	7.86349E-001	1.23419E-002	0.00000E+000	7.87350E-001	-1.26688E-004	10	...........	-327.56
	522	52.3	7.95399E-001	1.24453E-002	0.00000E+000	7.96350E-001	-1.23488E-004	10	...........	-327.56
	531	53.2	8.04403E-001	1.23364E-002	0.00000E+000	8.05350E-001	-1.24888E-004	10	...........	-327.56
	540	54.1	8.13365E-001	1.23230E-002	0.00000E+000	8.14350E-001	-1.23688E-004	10	...........	-327.56
	549	55	8.22343E-001	1.23114E-002	0.00000E+000	8.23350E-001	-1.27888E-004	10	...........	-327.56
	558	55.9	8.31329E-001	1.23190E-002	0.00000E+000	8.32350E-001	-1.34688E-004	10	...........	-327.56
	567	56.8	8.40300E-001	1.23612E-002	0.00000E+000	8.41350E-001	-1.21488E-004	10	...........	-327.56
	576	57.7	8.49353E-001	1.22932E-002	0.00000E+000	8.50350E-001	-1.21488E-004	10	...........	-327.56
	585	58.6	8.58235E-001	1.23486E-002	0.00000E+000	8.59350E-001	-1.20288E-004	10	...........	-327.56
	594	59.5	8.67290E-001	1.24729E-002	0.00000E+000	8.68350E-001	-1.25688E-004	10	...........	-327.56
	603	60.4	8.76309E-001	1.23921E-002	0.00000E+000	8.77350E-001	-1.26488E-004	10	...........	-327.56
	612	61.3	8.85223E-001	1.24962E-002	0.00000E+000	8.86350E-001	-1.21088E-004	10	...........	-327.56
	621	62.2	8.94311E-001	1.25556E-002	0.00000E+000	8.95350E-001	-1.22488E-004	10	...........	-327.56
	630	63.1	9.03290E-001	1.25469E-002	0.00000E+000	9.04350E-001	-1.21088E-004	10	...........	-327.56
	639	64	9.12231E-001	1.25196E-002	0.00000E+000	9.13350E-001	-1.22888E-004	10	...........	-327.56
	648	64.9	9.21259E-001	1.24828E-002	0.00000E+000	9.22350E-001	-1.24488E-004	10	...........	-327.56
	657	65.8	9.30252E-001	1.27446E-002	0.00000E+000	9.31350E-001	-1.25288E-004	10	...........	-327.56
	666	66.7	9.39171E-001	1.28141E-002	0.00000E+000	9.40350E-001	-1.30288E-004	10	...........	-327.56
	675	67.6	9.48210E-001	1.27472E-002	0.00000E+000	9.49350E-001	-1.17888E-004	10	...........	-327.56
	684	68.5	9.57235E-001	1.28957E-002	0.00000E+000	9.58350E-001	-1.20488E-004	10	...........	-327.56
	693	69.4	9.66243E-001	1.28878E-002	0.00000E+000	9.67350E-001	-1.20088E-004	10	...........	-327.56
	702	70.3	9.75189E-001	1.30889E-002	0.00000E+000	9.76350E-001	-1.10888E-004	10	...........	-327.56
	711	71.2	9.84215E-001	1.30684E-002	0.00000E+000	9.85350E-001	-1.21088E-004	10	...........	-327.56
	720	72.1	9.93146E-001	1.31789E-002	0.00000E+000	9.94350E-001	-1.18488E-004	10	...........	-327.56
	729	73	1.00217E+000	1.32776E-002	0.00000E+000	1.00335E+000	-1.20888E-004	10	...........	-327.56
	738	73.9	1.01118E+000	1.34051E-002	0.00000E+000	1.01235E+000	-1.27288E-004	10	...........	-327.56
	747	74.8	1.02012E+000	1.34896E-002	0.00000E+000	1.02135E+000	-1.25288E-004	10	...........	-327.56
	756	75.7	1.02915E+000	1.36611E-002	0.00000E+000	1.03035E+000	-1.19888E-004	10	...........	-327.56
	765	76.6	1.03808E+000	1.39218E-002	0.00000E+000	1.03935E+000	-1.28088E-004	10	...........	-327.56
	774	77.5	1.04708E+000	1.39297E-002	0.00000E+000	1.04835E+000	-1.18488E-004	10	...........	-327.56
	783	78.4	1.05614E+000	1.41514E-002	0.00000E+000	1.05735E+000	-1.22888E-004	10	...........	-327.56
	792	79.3	1.06505E+000	1.43424E-002	0.00000E+000	1.06635E+000	-1.18488E-004	10	...........	-327.56
	801	80.2	1.07407E+000	1.49325E-002	0.00000E+000	1.07535E+000	-1.19888E-004	10	...........	-327.56
	810	81.1	1.08311E+000	1.52968E-002	0.00000E+000	1.08435E+000	-1.20488E-004	10	...........	-327.56
	819	82	1.09201E+000	1.56656E-002	0.00000E+000	1.09335E+000	-1.15888E-004	10	...........	-327.56
	828	82.9	1.10105E+000	1.61174E-002	0.00000E+000	1.10235E+000	-1.15888E-004	10	...........	-327.56
	837	83.8	1.11006E+000	1.65941E-002	0.00000E+000	1.11135E+000	-1.23888E-004	10	...........	-327.56
	846	84.7	1.11900E+000	1.71799E-002	0.00000E+000	1.12035E+000	-1.24088E-004	10	...........	-327.56
	855	85.6	1.12798E+000	1.76824E-002	0.00000E+000	1.12935E+000	-1.21688E-004	10	...........	-327.56
	864	86.5	1.13699E+000	1.82662E-002	0.00000E+000	1.13835E+000	-1.15488E-004	10	...........	-327.56
	873	87.4	1.14592E+000	1.91010E-002	0.00000E+000	1.14735E+000	-1.24888E-004	10	...........	-327.56
	882	88.3	1.15494E+000	1.99654E-002	0.00000E+000	1.15635E+000	-1.22088E-004	10	...........	-327.56
	891	89.2	1.16393E+000	2.09569E-002	0.00000E+000	1.16535E+000	-1.16088E-004	10	...........	-327.56
	900	90.1	1.17286E+000	2.18914E-002	0.00000E+000	1.17435E+000	-1.25888E-004	10	...........	-327.56
	909	91	1.18188E+000	2.30382E-002	0.00000E+000	1.18335E+000	-1.15688E-004	10	...........	-327.56
	918	91.9	1.19076E+000	2.42861E-002	0.00000E+000	1.19235E+000	-1.16688E-004	10	...........	-327.56
	927	92.8	1.19986E+000	2.50260E-002	0.00000E+000	1.20135E+000	-1.22888E-004	10	...........	-327.56
	936	93.7	1.20882E+000	2.64996E-002	0.00000E+000	1.21035E+000	-1.19888E-004	10	...........	-327.56
	945	94.6	1.21801E+000	2.84931E-002	0.00000E+000	1.21935E+000	-1.21088E-004	11	...........	-327.56
	954	95.5	1.22711E+000	3.05517E-002	0.00000E+000	1.22835E+000	-1.19488E-004	11	...........	-327.56
	963	96.4	1.23609E+000	3.28919E-002	0.00000E+000	1.23735E+000	-1.25488E-004	11	...........	-327.56
	972	97.3	1.24502E+000	3.58975E-002	0.00000E+000	1.24635E+000	-1.19688E-004	11	...........	-327.56
	981	98.2	1.25403E+000	3.99408E-002	0.00000E+000	1.25535E+000	-1.20288E-004	11	...........	-327.56
	990	99.1	1.26309E+000	4.35232E-002	0.00000E+000	1.26435E+000	-1.20088E-004	11	...........	-327.56
	999	100	1.27199E+000	4.73778E-002	0.00000E+000	1.27335E+000	-1.25288E-004	11	...........	-327.56
	1008	100.9	1.28101E+000	5.23079E-002	0.00000E+000	1.28235E+000	-1.27488E-004	11	...........	-327.56
	1017	101.8	1.29004E+000	5.71049E-002	0.00000E+000	1.29135E+000	-1.21088E-004	11	...........	-327.56
	1026	102.7	1.29903E+000	6.25191E-002	0.00000E+000	1.30035E+000	-1.18488E-004	11	...........	-327.56
	1035	103.6	1.30798E+000	6.83752E-002	0.00000E+000	1.30935E+000	-1.22888E-004	11	...........	-327.56
	1044	104.5	1.31700E+000	7.48205E-002	0.00000E+000	1.31835E+000	-1.24088E-004	11	...........	-327.56
	1053	105.4	1.32592E+000	8.15740E-002	0.00000E+000	1.32735E+000	-1.17888E-004	11	...........	-327.56
	1062	106.3	1.33491E+000	8.89256E-002	0.00000E+000	1.33635E+000	-1.12488E-004	11	...........	-327.56
	1071	107.2	1.34390E+000	9.67869E-002	0.00000E+000	1.34535E+000	-1.15288E-004	11	...........	-327.56
	1080	108.1	1.35281E+000	1.05281E-001	0.00000E+000	1.35435E+000	-1.21888E-004	11	...........	-327.56
	1089	109	1.36186E+000	1.13176E-001	0.00000E+000	1.36335E+000	-1.20088E-004	11	...........	-327.56
	1098	109.9	1.37074E+000	1.20757E-001	0.00000E+000	1.37235E+000	-1.29288E-004	11	...........	-327.56
	1107	110.8	1.37977E+000	1.30341E-001	0.00000E+000	1.38135E+000	-1.16888E-004	11	...........	-327.56
	1116	111.7	1.38877E+000	1.41154E-001	0.00000E+000	1.39035E+000	-1.24488E-004	11	...........	-327.56
	1125	112.6	1.39767E+000	1.52107E-001	0.00000E+000	1.39935E+000	-1.15488E-004	11	...........	-327.56
	1134	113.5	1.40670E+000	1.63549E-001	0.00000E+000	1.40835E+000	-1.23288E-004	11	...........	-327.56
	1143	114.4	1.41572E+000	1.75163E-001	0.00000E+000	1.41735E+000	-1.24688E-004	11	...........	-327.56
	1152	115.3	1.42462E+000	1.86512E-001	0.00000E+000	1.42635E+000	-1.09088E-004	11	...........	-327.56
	1161	116.2	1.43362E+000	1.98645E-001	0.00000E+000	1.43535E+000	-1.13688E-004	11	...........	-327.56
	1170	117.1	1.44262E+000	2.11596E-001	0.00000E+000	1.44435E+000	-1.22688E-004	11	...........	-327.56
	1179	118	1.45153E+000	2.23796E-001	0.00000E+000	1.45335E+000	-1.19288E-004	11	...........	-327.56
	1188	118.9	1.46058E+000	2.36059E-001	0.00000E+000	1.46235E+000	-1.21488E-004	11	...........	-327.56
	1197	119.8	1.46955E+000	2.49077E-001	0.00000E+000	1.47135E+000	-1.20488E-004	11	...........	-327.56
	1206	120.7	1.47845E+000	2.62246E-001	0.00000E+000	1.48035E+000	-1.22688E-004	11	...........	-327.56
	1215	121.6	1.48781E+000	2.74510E-001	0.00000E+000	1.48935E+000	-1.22288E-004	12	...........	-327.56
	1224	122.5	1.49674E+000	2.87173E-001	0.00000E+000	1.49835E+000	-1.26888E-004	12	...........	-327.56
	1233	123.4	1.50571E+000	2.99140E-001	0.00000E+000	1.50735E+000	-1.26288E-004	12	...........	-327.56
	1242	124.3	1.51474E+000	3.09114E-001	0.00000E+000	1.51635E+000	-1.14688E-004	12	...........	-327.56
	1251	125.2	1.52363E+000	3.23018E-001	0.00000E+000	1.52535E+000	-1.17488E-004	12	...........	-327.56
	1260	126.1	1.53272E+000	3.34249E-001	0.00000E+000	1.53435E+000	-1.19688E-004	12	...........	-327.56
	1269	127	1.54165E+000	3.47661E-001	0.00000E+000	1.54335E+000	-1.20488E-004	12	...........	-327.56
	1278	127.9	1.55057E+000	3.63165E-001	0.00000E+000	1.55235E+000	-1.23288E-004	12	...........	-327.56
	1287	128.8	1.55958E+000	3.74754E-001	0.00000E+000	1.56135E+000	-1.21488E-004	12	...........	-327.56
	1296	129.7	1.56861E+000	3.92832E-001	0.00000E+000	1.57035E+000	-1.12288E-004	12	...........	-327.56
	1305	130.6	1.57754E+000	4.04797E-001	0.00000E+000	1.57935E+000	-1.22288E-004	12	...........	-327.56
	1314	131.5	1.58656E+000	4.17439E-001	0.00000E+000	1.58835E+000	-1.23488E-004	12	...........	-327.56
	1323	132.4	1.59557E+000	4.34959E-001	0.00000E+000	1.59735E+000	-1.22488E-004	12	...........	-327.56
	1332	133.3	1.60451E+000	4.52503E-001	0.00000E+000	1.60635E+000	-1.21288E-004	12	...........	-327.56
	1341	134.2	1.61351E+000	4.62016E-001	0.00000E+000	1.61535E+000	-1.20488E-004	12	...........	-327.56
	1350	135.1	1.62253E+000	4.81405E-001	0.00000E+000	1.62435E+000	-1.15688E-004	12	...........	-327.56
	1359	136	1.63146E+000	4.96338E-001	0.00000E+000	1.63335E+000	-1.16488E-004	12	...........	-327.56
	1368	136.9	1.64045E+000	5.12245E-001	0.00000E+000	1.64235E+000	-1.20688E-004	12	...........	-327.56
	1377	137.8	1.64948E+000	5.36167E-001	0.00000E+000	1.65135E+000	-1.17888E-004	12	...........	-327.56
	1386	138.7	1.65838E+000	5.47688E-001	0.00000E+000	1.66035E+000	-1.19288E-004	12	...........	-327.56
	1395	139.6	1.66743E+000	5.64346E-001	0.00000E+000	1.66935E+000	-1.21288E-004	12	...........	-327.56
	1404	140.5	1.67641E+000	5.85741E-001	0.00000E+000	1.67835E+000	-1.22888E-004	12	...........	-327.56
	1413	141.4	1.68534E+000	6.03274E-001	0.00000E+000	1.68735E+000	-1.13688E-004	12	...........	-327.56
	1422	142.3	1.69436E+000	6.17441E-001	0.00000E+000	1.69635E+000	-1.20688E-004	12	...........	-327.56
	1431	143.2	1.69336E+000	6.23870E-001	0.00000E+000	1.69535E+000	-1.18888E-004	12	...........	-327.56
	1440	144.1	1.68434E+000	6.12355E-001	0.00000E+000	1.68635E+000	-1.29688E-004	12	...........	-327.56
	1449	145	1.67538E+000	6.11654E-001	0.00000E+000	1.67735E+000	-1.24288E-004	12	...........	-327.56
	1458	145.9	1.66640E+000	5.95171E-001	0.00000E+000	1.66835E+000	-1.28288E-004	12	...........	-327.56
	1467	146.8	1.65743E+000	5.85515E-001	0.00000E+000	1.65935E+000	-1.27288E-004	12	...........	-327.56
	1476	147.7	1.64845E+000	5.76265E-001	0.00000E+000	1.65035E+000	-1.19488E-004	12	...........	-327.56
	1485	148.6	1.63942E+000	5.68015E-001	0.00000E+000	1.64135E+000	-1.24288E-004	12	...........	-327.56
	1494	149.5	1.63038E+000	5.59724E-001	0.00000E+000	1.63235E+000	-1.16088E-004	12	...........	-327.56
	1503	150.4	1.62147E+000	5.44262E-001	0.00000E+000	1.62335E+000	-1.13288E-004	12	...........	-327.56
	1512	151.3	1.61244E+000	5.37223E-001	0.00000E+000	1.61435E+000	-1.15488E-004	12	...........	-327.56
	1521	152.2	1.60345E+000	5.25243E-001	0.00000E+000	1.60535E+000	-1.26488E-004	12	...........	-327.56
	1530	153.1	1.59450E+000	5.13069E-001	0.00000E+000	1.59635E+000	-1.19888E-004	12	...........	-327.56
	1539	154	1.58552E+000	5.06296E-001	0.00000E+000	1.58735E+000	-1.17288E-004	12	...........	-327.56
	1548	154.9	1.57646E+000	4.85898E-001	0.00000E+000	1.57835E+000	-1.19288E-004	12	...........	-327.56
	1557	155.8	1.56756E+000	4.77750E-001	0.00000E+000	1.56935E+000	-1.23088E-004	12	...........	-327.56
	1566	156.7	1.55853E+000	4.67199E-001	0.00000E+000	1.56035E+000	-1.19288E-004	12	...........	-327.56
	1575	157.6	1.54948E+000	4.57517E-001	0.00000E+000	1.55135E+000	-1.14088E-004	12	...........	-327.56
	1584	158.5	1.54062E+000	4.43253E-001	0.00000E+000	1.54235E+000	-1.19488E-004	12	...........	-327.56
	1593	159.4	1.53162E+000	4.31285E-001	0.00000E+000	1.53335E+000	-1.17288E-004	12	...........	-327.56
	1602	160.3	1.52264E+000	4.18308E-001	0.00000E+000	1.52435E+000	-1.22088E-004	12	...........	-327.56
	1611	161.2	1.51368E+000	4.05841E-001	0.00000E+000	1.51535E+000	-1.14688E-004	12	...........	-327.56
	1620	162.1	1.50463E+000	3.91916E-001	0.00000E+000	1.50635E+000	-1.11488E-004	12	...........	-327.56
	1629	163	1.49570E+000	3.81906E-001	0.00000E+000	1.49735E+000	-1.19088E-004	12	...........	-327.56
	1638	163.9	1.48673E+000	3.69409E-001	0.00000E+000	1.48835E+000	-1.24088E-004	12	...........	-327.56
	1647	164.8	1.47767E+000	3.58839E-001	0.00000E+000	1.47935E+000	-1.24088E-004	12	...........	-327.56
	1656	165.7	1.46875E+000	3.46734E-001	0.00000E+000	1.47035E+000	-1.26288E-004	12	...........	-327.56
	1665	166.6	1.45974E+000	3.34318E-001	0.00000E+000	1.46135E+000	-1.18088E-004	12	...........	-327.56
	1674	167.5	1.45072E+000	3.22555E-001	0.00000E+000	1.45235E+000	-1.24088E-004	12	...........	-327.56
	1683	168.4	1.44179E+000	3.10517E-001	0.00000E+000	1.44335E+000	-1.25088E-004	12	...........	-327.56
	1692	169.3	1.43277E+000	2.98440E-001	0.00000E+000	1.43435E+000	-1.18688E-004	12	...........	-327.56
	1701	170.2	1.42385E+000	2.87760E-001	0.00000E+000	1.42535E+000	-1.24088E-004	12	...........	-327.56
	1710	171.1	1.41485E+000	2.74354E-001	0.00000E+000	1.41635E+000	-1.17488E-004	12	...........	-327.56
	1719	172	1.40581E+000	2.62567E-001	0.00000E+000	1.40735E+000	-1.25488E-004	12	...........	-327.56
	1728	172.9	1.39675E+000	2.51243E-001	0.00000E+000	1.39835E+000	-1.14488E-004	12	...........	-327.56
	1737	173.8	1.38788E+000	2.39169E-001	0.00000E+000	1.38935E+000	-1.10088E-004	12	...........	-327.56
	1746	174.7	1.37861E+000	2.27751E-001	0.00000E+000	1.38035E+000	-1.26288E-004	11	...........	-327.56
	1755	175.6	1.36964E+000	2.16572E-001	0.00000E+000	1.37135E+000	-1.17088E-004	11	...........	-327.56
	1764	176.5	1.36070E+000	2.05250E-001	0.00000E+000	1.36235E+000	-1.16288E-004	11	...........	-327.56
	1773	177.4	1.35169E+000	1.93546E-001	0.00000E+000	1.35335E+000	-1.17888E-004	11	...........	-327.56
	1782	178.3	1.34276E+000	1.82581E-001	0.00000E+000	1.34435E+000	-1.18888E-004	11	...........	-327.56
	1791	179.2	1.33376E+000	1.69690E-001	0.00000E+000	1.33535E+000	-1.25088E-004	11	...........	-327.56
	1800	180.1	1.32478E+000	1.58114E-001	0.00000E+000	1.32635E+000	-1.17288E-004	11	...........	-327.56
	1809	181	1.31588E+000	1.47922E-001	0.00000E+000	1.31735E+000	-1.20888E-004	11	...........	-327.56
	1818	181.9	1.30687E+000	1.37812E-001	0.00000E+000	1.30835E+000	-1.17888E-004	11	...........	-327.56
	1827	182.8	1.29784E+000	1.26862E-001	0.00000E+000	1.29935E+000	-1.21688E-004	11	...........	-327.56
	1836	183.7	1.28893E+000	1.17294E-001	0.00000E+000	1.29035E+000	-1.19488E-004	11	...........	-327.56
	1845	184.6	1.27993E+000	1.06684E-001	0.00000E+000	1.28135E+000	-1.21488E-004	11	...........	-327.56
	1854	185.5	1.27091E+000	9.66115E-002	0.00000E+000	1.27235E+000	-1.16088E-004	11	...........	-327.56
	1863	186.4	1.26200E+000	8.74570E-002	0.00000E+000	1.26335E+000	-1.20288E-004	11	...........	-327.56
	1872	187.3	1.25299E+000	7.91965E-002	0.00000E+000	1.25435E+000	-1.19488E-004	11	...........	-327.56
	1881	188.2	1.24395E+000	7.07811E-002	0.00000E+000	1.24535E+000	-1.23488E-004	11	...........	-327.56
	1890	189.1	1.23508E+000	6.28517E-002	0.00000E+000	1.23635E+000	-1.19488E-004	11	...........	-327.56
	1899	190	1.22601E+000	5.59873E-002	0.00000E+000	1.22735E+000	-1.15888E-004	11	...........	-327.56
	1908	190.9	1.21697E+000	4.95089E-002	0.00000E+000	1.21835E+000	-1.35288E-004	11	...........	-327.56
	1917	191.8	1.20810E+000	4.40915E-002	0.00000E+000	1.20935E+000	-1.15688E-004	11	...........	-327.56
	1926	192.7	1.19904E+000	3.87666E-002	0.00000E+000	1.20035E+000	-1.14688E-004	11	...........	-327.56
	1935	193.6	1.19012E+000	3.41901E-002	0.00000E+000	1.19135E+000	-1.19688E-004	11	...........	-327.56
	1944	194.5	1.18113E+000	2.99802E-002	0.00000E+000	1.18235E+000	-1.17688E-004	11	...........	-327.56
	1953	195.4	1.17210E+000	2.63929E-002	0.00000E+000	1.17335E+000	-1.23088E-004	11	...........	-327.56
	1962	196.3	1.16293E+000	2.27277E-002	0.00000E+000	1.16435E+000	-1.17288E-004	10	...........	-327.56
	1971	197.2	1.15395E+000	1.96477E-002	0.00000E+000	1.15535E+000	-1.18288E-004	10	...........	-327.56
	1980	198.1	1.14495E+000	1.71168E-002	0.00000E+000	1.14635E+000	-1.29088E-004	10	...........	-327.56
	1989	199	1.13603E+000	1.49303E-002	0.00000E+000	1.13735E+000	-1.20688E-004	10	...........	-327.56
	1998	199.9	1.12703E+000	1.30424E-002	0.00000E+000	1.12835E+000	-1.11288E-004	10	...........	-327.56
	2007	200.8	1.11807E+000	1.16465E-002	0.00000E+000	1.11935E+000	-1.24888E-004	10	...........	-327.56
	2016	201.7	1.10915E+000	1.05596E-002	0.00000E+000	1.11035E+000	-1.19888E-004	10	...........	-327.56
	2025	202.6	1.10012E+000	9.59510E-003	0.00000E+000	1.10135E+000	-1.27688E-004	10	...........	-327.56
	2034	203.5	1.09113E+000	8.77139E-003	0.00000E+000	1.09235E+000	-1.13288E-004	10	...........	-327.56
	2043	204.4	1.08219E+000	8.14338E-003	0.00000E+000	1.08335E+000	-1.17488E-004	10	...........	-327.56
	2052	205.3	1.07316E+000	7.52316E-003	0.00000E+000	1.07435E+000	-1.22688E-004	10	...........	-327.56
	2061	206.2	1.06415E+000	6.68992E-003	0.00000E+000	1.06535E+000	-1.24088E-004	10	...........	-327.56
	2070	207.1	1.05523E+000	6.13437E-003	0.00000E+000	1.05635E+000	-1.12688E-004	10	...........	-327.56
	2079	208	1.04625E+000	5.70789E-003	0.00000E+000	1.04735E+000	-1.15288E-004	10	...........	-327.56
	2088	208.9	1.03716E+000	5.36026E-003	0.00000E+000	1.03835E+000	-1.18488E-004	10	...........	-327.56
	2097	209.8	1.02825E+000	5.12386E-003	0.00000E+000	1.02935E+000	-1.29488E-004	10	...........	-327.56
	2106	210.7	1.01924E+000	4.90196E-003	0.00000E+000	1.02035E+000	-1.24688E-004	10	...........	-327.56
	2115	211.6	1.01030E+000	4.66416E-003	0.00000E+000	1.01135E+000	-1.16688E-004	10	...........	-327.56
	2124	212.5	1.00129E+000	4.43432E-003	0.00000E+000	1.00235E+000	-1.25888E-004	10	...........	-327.56
	2133	213.4	9.92254E-001	4.38071E-003	0.00000E+000	9.93350E-001	-1.13088E-004	10	...........	-327.56
	2142	214.3	9.83308E-001	4.27290E-003	0.00000E+000	9.84350E-001	-1.20888E-004	10	...........	-327.56
	2151	215.2	9.74328E-001	4.17613E-003	0.00000E+000	9.75350E-001	-1.25888E-004	10	...........	-327.56
	2160	216.1	9.65276E-001	4.06765E-003	0.00000E+000	9.66350E-001	-1.20688E-004	10	...........	-327.56
	2169	217	9.56328E-001	3.96335E-003	0.00000E+000	9.57350E-001	-1.16088E-004	10	...........	-327.56
	2178	217.9	9.47325E-001	3.89227E-003	0.00000E+000	9.48350E-001	-1.27088E-004	10	...........	-327.56
	2187	218.8	9.38286E-001	3.80818E-003	0.00000E+000	9.39350E-001	-1.17688E-004	10	...........	-327.56
	2196	219.7	9.29385E-001	3.71020E-003	0.00000E+000	9.30350E-001	-1.20888E-004	10	...........	-327.56
	2205	220.6	9.20380E-001	3.67052E-003	0.00000E+000	9.21350E-001	-1.18888E-004	10	...........	-327.56
	2214	221.5	9.11317E-001	3.60387E-003	0.00000E+000	9.12350E-001	-1.24088E-004	10	...........	-327.56
	2223	222.4	9.02429E-001	3.55039E-003	0.00000E+000	9.03350E-001	-1.21688E-004	10	...........	-327.56
	2232	223.3	8.93392E-001	3.50037E-003	0.00000E+000	8.94350E-001	-1.18088E-004	10	...........	-327.56
	2241	224.2	8.84358E-001	3.29742E-003	0.00000E+000	8.85350E-001	-1.27288E-004	10	...........	-327.56
	2250	225.1	8.75448E-001	3.24267E-003	0.00000E+000	8.76350E-001	-1.25688E-004	10	...........	-327.56
	2259	226	8.66404E-001	3.16445E-003	0.00000E+000	8.67350E-001	-1.15488E-004	10	...........	-327.56
	2268	226.9	8.57478E-001	3.09458E-003	0.00000E+000	8.58350E-001	-1.12088E-004	10	...........	-327.56
	2277	227.8	8.48453E-001	3.03186E-003	0.00000E+000	8.49350E-001	-1.16688E-004	10	...........	-327.56
	2286	228.7	8.39419E-001	2.97112E-003	0.00000E+000	8.40350E-001	-1.15288E-004	10	...........	-327.56
	2295	229.6	8.30475E-001	2.81794E-003	0.00000E+000	8.31350E-001	-1.19888E-004	10	...........	-327.56
	2304	230.5	8.21464E-001	2.68778E-003	0.00000E+000	8.22350E-001	-1.13088E-004	10	...........	-327.56
	2313	231.4	8.12489E-001	2.66212E-003	0.00000E+000	8.13350E-001	-1.20688E-004	10	...........	-327.56
	2322	232.3	8.03548E-001	2.62946E-003	0.00000E+000	8.04350E-001	-1.20688E-004	10	...........	-327.56
	2331	233.2	7.94516E-001	2.52742E-003	0.00000E+000	7.95350E-001	-1.23688E-004	10	...........	-327.56
	2340	234.1	7.85205E-001	2.36688E-003	0.00000E+000	7.86350E-001	-1.18888E-004	9	...........	-327.56
	2349	235	7.76294E-001	2.32486E-003	0.00000E+000	7.77350E-001	-1.20488E-004	9	...........	-327.56
	2358	235.9	7.67261E-001	2.15110E-003	0.00000E+000	7.68350E-001	-1.12888E-004	9	...........	-327.56
	2367	236.8	7.58324E-001	1.97767E-003	0.00000E+000	7.59350E-001	-1.17088E-004	9	...........	-327.56
	2376	237.7	7.49376E-001	1.81939E-003	0.00000E+000	7.50350E-001	-1.13288E-004	9	...........	-327.56
	2385	238.6	7.40343E-001	1.68477E-003	0.00000E+000	7.41350E-001	-1.17488E-004	9	...........	-327.56
	2394	239.5	7.31347E-001	1.53548E-003	0.00000E+000	7.32350E-001	-1.28488E-004	9	...........	-327.56
	2403	240.4	7.22443E-001	1.34216E-003	0.00000E+000	7.23350E-001	-1.25488E-004	9	...........	-327.56
	2412	241.3	7.13494E-001	1.44062E-003	0.00000E+000	7.14350E-001	-1.22688E-004	9	...........	-327.56
	2421	242.2	7.04394E-001	1.34723E-003	0.00000E+000	7.05350E-001	-1.23288E-004	9	...........	-327.56
	2430	243.1	6.95518E-001	1.13247E-003	0.00000E+000	6.96350E-001	-1.22888E-004	9	...........	-327.56
	2439	244	6.86508E-001	1.04231E-003	0.00000E+000	6.87350E-001	-1.21088E-004	9	...........	-327.56
	2448	244.9	6.77553E-001	9.02422E-004	0.00000E+000	6.78350E-001	-1.19488E-004	9	...........	-327.56
	2457	245.8	6.68604E-001	7.31865E-004	0.00000E+000	6.69350E-001	-1.26088E-004	9	...........	-327.56
	2466	246.7	6.59563E-001	5.78231E-004	0.00000E+000	6.60350E-001	-1.21488E-004	9	...........	-327.56
	2475	247.6	6.50639E-001	4.29484E-004	0.00000E+000	6.51350E-001	-1.16688E-004	9	...........	-327.56
	2484	248.5	6.41658E-001	2.54326E-004	0.00000E+000	6.42350E-001	-1.25888E-004	9	...........	-327.56
	2493	249.4	6.32579E-001	5.24926E-005	0.00000E+000	6.33350E-001	-1.10288E-004	8	...........	-327.56
	2502	250.3	6.23936E-001	-1.83177E-004	0.00000E+000	6.24350E-001	-1.21688E-004	8	...........	-327.56
	2511	251.2	6.14740E-001	-4.05897E-004	0.00000E+000	6.15350E-001	-1.22488E-004	9	...........	-327.56
	2520	252.1	6.05758E-001	-5.77955E-004	0.00000E+000	6.06350E-001	-1.25288E-004	9	...........	-327.56
	2529	253	5.96858E-001	-8.37867E-004	0.00000E+000	5.97350E-001	-1.18088E-004	9	...........	-327.56
	2538	253.9	5.87846E-001	-1.05916E-003	0.00000E+000	5.88350E-001	-1.23088E-004	9	...........	-327.56
	2547	254.8	5.78839E-001	-1.27836E-003	0.00000E+000	5.79350E-001	-1.15688E-004	9	...........	-327.56
	2556	255.7	5.69959E-001	-1.57428E-003	0.00000E+000	5.70350E-001	-1.18488E-004	9	...........	-327.56
	2565	256.6	5.60975E-001	-1.85157E-003	0.00000E+000	5.61350E-001	-1.13488E-004	9	...........	-327.56
	2574	257.5	5.51957E-001	-2.15913E-003	0.00000E+000	5.52350E-001	-1.27088E-004	9	...........	-327.56
	2583	258.4	5.43096E-001	-2.52708E-003	0.00000E+000	5.43350E-001	-1.13488E-004	9	...........	-327.56
	2592	259.3	5.33773E-001	-2.88994E-003	0.00000E+000	5.34350E-001	-1.19888E-004	10	...........	-327.56
	2601	260.2	5.24821E-001	-3.19964E-003	0.00000E+000	5.25350E-001	-1.18288E-004	10	...........	-327.56
	2610	261.1	5.15835E-001	-3.57603E-003	0.00000E+000	5.16350E-001	-1.21288E-004	10	...........	-327.56
	2619	262	5.06850E-001	-3.97605E-003	0.00000E+000	5.07350E-001	-1.16288E-004	10	...........	-327.56
	2628	262.9	4.97932E-001	-4.37477E-003	0.00000E+000	4.98350E-001	-1.21488E-004	10	...........	-327.56
	2637	263.8	4.88898E-001	-4.80235E-003	0.00000E+000	4.89350E-001	-1.20688E-004	10	...........	-327.56
	2646	264.7	4.79922E-001	-5.49386E-003	0.00000E+000	4.80350E-001	-1.22688E-004	10	...........	-327.56
	2655	265.6	4.70962E-001	-5.84529E-003	0.00000E+000	4.71350E-001	-1.20288E-004	10	...........	-327.56
	2664	266.5	4.61923E-001	-6.22303E-003	0.00000E+000	4.62350E-001	-1.17088E-004	10	...........	-327.56
	2673	267.4	4.52920E-001	-7.40086E-003	0.00000E+000	4.53350E-001	-1.23488E-004	10	...........	-327.56
	2682	268.3	4.43991E-001	-7.78228E-003	0.00000E+000	4.44350E-001	-1.22488E-004	10	...........	-327.56
	2691	269.2	4.34970E-001	-7.89623E-003	0.00000E+000	4.35350E-001	-1.23688E-004	10	...........	-327.56
	2700	270.1	4.25926E-001	-8.50267E-003	0.00000E+000	4.26350E-001	-1.21088E-004	10	...........	-327.56
	2709	271	4.17009E-001	-8.61204E-003	0.00000E+000	4.17350E-001	-1.14488E-004	10	...........	-327.56
	2718	271.9	4.07970E-001	-8.94189E-003	0.00000E+000	4.08350E-001	-1.17688E-004	10	...........	-327.56
	2727	272.8	3.98953E-001	-9.62320E-003	0.00000E+000	3.99350E-001	-1.23488E-004	10	...........	-327.56
	2736	273.7	3.90030E-001	-9.75698E-003	0.00000E+000	3.90350E-001	-1.19888E-004	10	...........	-327.56
	2745	274.6	3.81006E-001	-9.89613E-003	0.00000E+000	3.81350E-001	-1.22488E-004	10	...........	-327.56
	2754	275.5	3.71952E-001	-1.06669E-002	0.00000E+000	3.72350E-001	-1.13088E-004	10	...........	-327.56
	2763	276.4	3.63088E-001	-1.09997E-002	0.00000E+000	3.63350E-001	-1.18288E-004	10	...........	-327.56
	2772	277.3	3.54008E-001	-1.05230E-002	0.00000E+000	3.54350E-001	-1.17288E-004	10	...........	-327.56
	2781	278.2	3.45063E-001	-1.04477E-002	0.00000E+000	3.45350E-001	-1.16488E-004	10	...........	-327.56
	2790	279.1	3.36076E-001	-1.05150E-002	0.00000E+000	3.36350E-001	-1.17288E-004	10	...........	-327.56
	2799	280	3.27027E-001	-1.07511E-002	0.00000E+000	3.27350E-001	-1.25488E-004	10	...........	-327.56
	2808	280.9	3.18111E-001	-1.10889E-002	0.00000E+000	3.18350E-001	-1.19688E-004	10	...........	-327.56
	2817	281.8	3.09098E-001	-1.12521E-002	0.00000E+000	3.09350E-001	-1.19888E-004	10	...........	-327.56
	2826	282.7	3.00094E-001	-1.14236E-002	0.00000E+000	3.00350E-001	-1.14288E-004	10	...........	-327.56
	2835	283.6	2.91156E-001	-1.15946E-002	0.00000E+000	2.91350E-001	-1.19488E-004	10	...........	-327.56
	2844	284.5	2.82152E-001	-1.18350E-002	0.00000E+000	2.82350E-001	-1.15088E-004	10	...........	-327.56
	2853	285.4	2.73131E-001	-1.19632E-002	0.00000E+000	2.73350E-001	-1.18088E-004	10	...........	-327.56
	2862	286.3	2.64196E-001	-1.20167E-002	0.00000E+000	2.64350E-001	-1.16888E-004	10	...........	-327.56
	2871	287.2	2.55152E-001	-1.21044E-002	0.00000E+000	2.55350E-001	-1.19488E-004	10	...........	-327.56
	2880	288.1	2.46175E-001	-1.21822E-002	0.00000E+000	2.46350E-001	-1.24288E-004	10	...........	-327.56
	2889	289	2.37214E-001	-1.22332E-002	0.00000E+000	2.37350E-001	-1.21888E-004	10	...........	-327.56
	2898	289.9	2.28175E-001	-1.22844E-002	0.00000E+000	2.28350E-001	-1.26288E-004	10	...........	-327.56
	2907	290.8	2.19154E-001	-1.23508E-002	0.00000E+000	2.19350E-001	-1.21688E-004	10	...........	-327.56
	2916	291.7	2.10236E-001	-1.23799E-002	0.00000E+000	2.10350E-001	-1.20088E-004	10	...........	-327.56
	2925	292.6	2.01197E-001	-1.26216E-002	0.00000E+000	2.01350E-001	-1.24088E-004	10	...........	-327.56
	2934	293.5	1.92177E-001	-1.27255E-002	0.00000E+000	1.92350E-001	-1.21288E-004	10	...........	-327.56
	2943	294.4	1.83256E-001	-1.27569E-002	0.00000E+000	1.83350E-001	-1.19488E-004	10	...........	-327.56
	2952	295.3	1.74281E-001	-1.26911E-002	0.00000E+000	1.74350E-001	-1.19888E-004	10	...........	-327.56
	2961	296.2	1.65283E-001	-1.26948E-002	0.00000E+000	1.65350E-001	-1.16488E-004	10	...........	-327.56
	2970	297.1	1.56260E-001	-1.26954E-002	0.00000E+000	1.56350E-001	-1.21088E-004	10	...........	-327.56
	2979	298	1.47238E-001	-1.27479E-002	0.00000E+000	1.47350E-001	-1.19688E-004	10	...........	-327.56
	2988	298.9	1.38304E-001	-1.27615E-002	0.00000E+000	1.38350E-001	-1.13288E-004	10	...........	-327.56
	2997	299.8	1.29280E-001	-1.27625E-002	0.00000E+000	1.29350E-001	-1.17088E-004	10	...........	-327.56
	3006	300.7	1.20246E-001	-1.28183E-002	0.00000E+000	1.20350E-001	-1.16688E-004	10	...........	-327.56
	3015	301.6	1.11323E-001	-1.28510E-002	0.00000E+000	1.11350E-001	-1.31088E-004	10	...........	-327.56
	3024	302.5	1.02333E-001	-1.29118E-002	0.00000E+000	1.02350E-001	-1.18688E-004	10	...........	-327.56
	3033	303.4	9.33046E-002	-1.29840E-002	0.00000E+000	9.33500E-002	-1.18688E-004	10	...........	-327.56
	3042	304.3	8.43717E-002	-1.30606E-002	0.00000E+000	8.43500E-002	-1.20688E-004	10	...........	-327.56
	3051	305.2	7.53596E-002	-1.31298E-002	0.00000E+000	7.53500E-002	-1.17688E-004	10	...........	-327.56
	3060	306.1	6.63135E-002	-1.32419E-002	0.00000E+000	6.63500E-002	-1.24488E-004	10	...........	-327.56
	3069	307	5.74144E-002	-1.33563E-002	0.00000E+000	5.73500E-002	-1.14688E-004	10	...........	-327.56
	3078	307.9	4.83563E-002	-1.34760E-002	0.00000E+000	4.83500E-002	-1.17888E-004	10	...........	-327.56
	3087	308.8	3.93092E-002	-1.36832E-002	0.00000E+000	3.93500E-002	-1.24488E-004	10	...........	-327.56
	3096	309.7	3.04200E-002	-1.38333E-002	0.00000E+000	3.03500E-002	-1.19088E-004	10	...........	-327.56
	3105	310.6	2.13668E-002	-1.40140E-002	0.00000E+000	2.13500E-002	-1.15088E-004	10	...........	-327.56
	3114	311.5	1.24060E-002	-1.41786E-002	0.00000E+000	1.23500E-002	-1.12288E-004	10	...........	-327.56
	3123	312.4	3.43614E-003	-1.44339E-002	0.00000E+000	3.35002E-003	-1.17088E-004	10	...........	-327.56
	3132	313.3	-5.39016E-003	-1.46495E-002	0.00000E+000	-5.64995E-003	-1.25488E-004	10	...........	-327.56
	3141	314.2	-1.43334E-002	-1.48308E-002	0.00000E+000	-1.46500E-002	-1.30488E-004	10	...........	-327.56
	3150	315.1	-2.33305E-002	-1.50545E-002	0.00000E+000	-2.36500E-002	-1.20288E-004	10	...........	-327.56
	3159	316	-3.23973E-002	-1.52469E-002	0.00000E+000	-3.26500E-002	-1.15288E-004	10	...........	-327.56
	3168	316.9	-4.12964E-002	-1.54539E-002	0.00000E+000	-4.16500E-002	-1.23488E-004	10	...........	-327.56
	3177	317.8	-5.03401E-002	-1.56663E-002	0.00000E+000	-5.06500E-002	-1.23688E-004	10	...........	-327.56
	3186	318.7	-5.92902E-002	-1.58526E-002	0.00000E+000	-5.96500E-002	-1.22088E-004	10	...........	-327.56
	3195	319.6	-6.82734E-002	-1.60325E-002	0.00000E+000	-6.86500E-002	-1.13888E-004	10	...........	-327.56
	3204	320.5	-7.73194E-002	-1.61875E-002	0.00000E+000	-7.76500E-002	-1.15488E-004	10	...........	-327.56
	3213	321.4	-8.63569E-002	-1.63549E-002	0.00000E+000	-8.66500E-002	-1.16088E-004	10	...........	-327.56
	3222	322.3	-9.52602E-002	-1.65457E-002	0.00000E+000	-9.56500E-002	-1.10088E-004	10	...........	-327.56
	3231	323.2	-1.04227E-001	-1.67657E-002	0.00000E+000	-1.04650E-001	-1.17888E-004	10	...........	-327.56
	3240	324.1	-1.13279E-001	-1.70308E-002	0.00000E+000	-1.13650E-001	-1.13088E-004	10	...........	-327.56
	3249	325	-1.22189E-001	-1.72815E-002	0.00000E+000	-1.22650E-001	-1.18688E-004	10	...........	-327.56
	3258	325.9	-1.31243E-001	-1.74557E-002	0.00000E+000	-1.31650E-001	-1.18488E-004	10	...........	-327.56
	3267	326.8	-1.40267E-001	-1.77200E-002	0.00000E+000	-1.40650E-001	-1.16688E-004	10	...........	-327.56
	3276	327.7	-1.49189E-001	-1.79492E-002	0.00000E+000	-1.49650E-001	-1.17688E-004	10	...........	-327.56
	3285	328.6	-1.58205E-001	-1.81203E-002	0.00000E+000	-1.58650E-001	-1.22288E-004	10	...........	-327.56
	3294	329.5	-1.67162E-001	-1.82807E-002	0.00000E+000	-1.67650E-001	-1.19288E-004	10	...........	-327.56
	3303	330.4	-1.76137E-001	-1.84607E-002	0.00000E+000	-1.76650E-001	-1.14888E-004	10	...........	-327.56
	3312	331.3	-1.85196E-001	-1.87883E-002	0.00000E+000	-1.85650E-001	-1.13088E-004	10	...........	-327.56
	3321	332.2	-1.94153E-001	-1.90102E-002	0.00000E+000	-1.94650E-001	-1.17688E-004	10	...........	-327.56
	3330	333.1	-2.03140E-001	-1.93058E-002	0.00000E+000	-2.03650E-001	-1.23488E-004	10	...........	-327.56
[...]
	21869	2187	5.42375E-001	3.29568E-002	0.00000E+000	5.43000E-001	-1.29088E-004	11	...........	-327.56
	21875	2187.6	5.48368E-001	3.24687E-002	0.00000E+000	5.49000E-001	-1.21888E-004	11	...........	-327.56
	21881	2188.2	5.54297E-001	3.18367E-002	0.00000E+000	5.55000E-001	-1.15088E-004	11	...........	-327.56
	21887	2188.8	5.60321E-001	3.16649E-002	0.00000E+000	5.61000E-001	-1.18288E-004	11	...........	-327.56
	21893	2189.4	5.66349E-001	3.06085E-002	0.00000E+000	5.67000E-001	-1.23288E-004	11	...........	-327.56
	21899	2190	5.72345E-001	3.09222E-002	0.00000E+000	5.73000E-001	-1.19088E-004	11	...........	-327.56
	21905	2190.6	5.78259E-001	2.97987E-002	0.00000E+000	5.79000E-001	-1.20888E-004	11	...........	-327.56
	21911	2191.2	5.84295E-001	2.84173E-002	0.00000E+000	5.85000E-001	-1.15488E-004	11	...........	-327.56
	21917	2191.8	5.90337E-001	2.76130E-002	0.00000E+000	5.91000E-001	-1.13488E-004	11	...........	-327.56
	21923	2192.4	5.96355E-001	2.58091E-002	0.00000E+000	5.97000E-001	-1.21888E-004	11	...........	-327.56
	21929	2193	6.02249E-001	2.50716E-002	0.00000E+000	6.03000E-001	-1.17488E-004	11	...........	-327.56
	21935	2193.6	6.08017E-001	2.46188E-002	0.00000E+000	6.09000E-001	-1.17888E-004	10	...........	-327.56
	21941	2194.2	6.14035E-001	2.38983E-002	0.00000E+000	6.15000E-001	-1.14088E-004	10	...........	-327.56
	21947	2194.8	6.20067E-001	2.30783E-002	0.00000E+000	6.21000E-001	-1.20288E-004	10	...........	-327.56
	21953	2195.4	6.26072E-001	2.23251E-002	0.00000E+000	6.27000E-001	-1.12288E-004	10	...........	-327.56
	21959	2196	6.32032E-001	2.18327E-002	0.00000E+000	6.33000E-001	-1.22888E-004	10	...........	-327.56
	21965	2196.6	6.38027E-001	2.14893E-002	0.00000E+000	6.39000E-001	-1.24288E-004	10	...........	-327.56
	21971	2197.2	6.44082E-001	2.12693E-002	0.00000E+000	6.45000E-001	-1.21088E-004	10	...........	-327.56
	21977	2197.8	6.50096E-001	2.07585E-002	0.00000E+000	6.51000E-001	-1.16688E-004	10	...........	-327.56
	21983	2198.4	6.55982E-001	2.01907E-002	0.00000E+000	6.57000E-001	-1.17088E-004	10	...........	-327.56
	21989	2199	6.62041E-001	1.96886E-002	0.00000E+000	6.63000E-001	-1.22088E-004	10	...........	-327.56
	21995	2199.6	6.68064E-001	1.93085E-002	0.00000E+000	6.69000E-001	-1.19088E-004	10	...........	-327.56
	22001	2200.2	6.74100E-001	1.88914E-002	0.00000E+000	6.75000E-001	-1.16288E-004	10	...........	-327.56
	22007	2200.8	6.79986E-001	1.79017E-002	0.00000E+000	6.81000E-001	-1.23888E-004	10	...........	-327.56
	22013	2201.4	6.86029E-001	1.75215E-002	0.00000E+000	6.87000E-001	-1.22888E-004	10	...........	-327.56
	22019	2202	6.92058E-001	1.73766E-002	0.00000E+000	6.93000E-001	-1.15488E-004	10	...........	-327.56
	22025	2202.6	6.98105E-001	1.71259E-002	0.00000E+000	6.99000E-001	-1.20088E-004	10	...........	-327.56
	22031	2203.2	7.04058E-001	1.68668E-002	0.00000E+000	7.05000E-001	-1.14888E-004	10	...........	-327.56
	22037	2203.8	7.10030E-001	1.68002E-002	0.00000E+000	7.11000E-001	-1.22488E-004	10	...........	-327.56
	22043	2204.4	7.16030E-001	1.65313E-002	0.00000E+000	7.17000E-001	-1.19488E-004	10	...........	-327.56
	22049	2205	7.22044E-001	1.62284E-002	0.00000E+000	7.23000E-001	-1.27088E-004	10	...........	-327.56
	22055	2205.6	7.28046E-001	1.59773E-002	0.00000E+000	7.29000E-001	-1.14488E-004	10	...........	-327.56
	22061	2206.2	7.33992E-001	1.60366E-002	0.00000E+000	7.35000E-001	-1.15288E-004	10	...........	-327.56
	22067	2206.8	7.39990E-001	1.57390E-002	0.00000E+000	7.41000E-001	-1.13688E-004	10	...........	-327.56
	22073	2207.4	7.46027E-001	1.57987E-002	0.00000E+000	7.47000E-001	-1.20688E-004	10	...........	-327.56
	22079	2208	7.52033E-001	1.55021E-002	0.00000E+000	7.53000E-001	-1.23688E-004	10	...........	-327.56
	22085	2208.6	7.57959E-001	1.54307E-002	0.00000E+000	7.59000E-001	-1.23288E-004	10	...........	-327.56
	22091	2209.2	7.63979E-001	1.52560E-002	0.00000E+000	7.65000E-001	-1.16288E-004	10	...........	-327.56
	22097	2209.8	7.70021E-001	1.50137E-002	0.00000E+000	7.71000E-001	-1.24888E-004	10	...........	-327.56
	22103	2210.4	7.76035E-001	1.50013E-002	0.00000E+000	7.77000E-001	-1.20688E-004	10	...........	-327.56
	22109	2211	7.81931E-001	1.51450E-002	0.00000E+000	7.83000E-001	-1.24288E-004	10	...........	-327.56
	22115	2211.6	7.87957E-001	1.50447E-002	0.00000E+000	7.89000E-001	-1.18488E-004	10	...........	-327.56
	22121	2212.2	7.94002E-001	1.45945E-002	0.00000E+000	7.95000E-001	-1.19888E-004	10	...........	-327.56
	22127	2212.8	8.00016E-001	1.48856E-002	0.00000E+000	8.01000E-001	-1.28688E-004	10	...........	-327.56
	22133	2213.4	8.06000E-001	1.47250E-002	0.00000E+000	8.07000E-001	-1.20488E-004	10	...........	-327.56
	22139	2214	8.11946E-001	1.45879E-002	0.00000E+000	8.13000E-001	-1.25688E-004	10	...........	-327.56
	22145	2214.6	8.17968E-001	1.45838E-002	0.00000E+000	8.19000E-001	-1.21688E-004	10	...........	-327.56
	22151	2215.2	8.23956E-001	1.46539E-002	0.00000E+000	8.25000E-001	-1.15888E-004	10	...........	-327.56
	22157	2215.8	8.29951E-001	1.45816E-002	0.00000E+000	8.31000E-001	-1.13288E-004	10	...........	-327.56
	22163	2216.4	8.35888E-001	1.45247E-002	0.00000E+000	8.37000E-001	-1.16288E-004	10	...........	-327.56
	22169	2217	8.41917E-001	1.46751E-002	0.00000E+000	8.43000E-001	-1.15488E-004	10	...........	-327.56
	22175	2217.6	8.47962E-001	1.47260E-002	0.00000E+000	8.49000E-001	-1.24888E-004	10	...........	-327.56
	22181	2218.2	8.53954E-001	1.50150E-002	0.00000E+000	8.55000E-001	-1.19288E-004	10	...........	-327.56
	22187	2218.8	8.59862E-001	1.48193E-002	0.00000E+000	8.61000E-001	-1.14488E-004	10	...........	-327.56
	22193	2219.4	8.65904E-001	1.47497E-002	0.00000E+000	8.67000E-001	-1.21488E-004	10	...........	-327.56
	22199	2220	8.71944E-001	1.48528E-002	0.00000E+000	8.73000E-001	-1.24488E-004	10	...........	-327.56
	22205	2220.6	8.77938E-001	1.48644E-002	0.00000E+000	8.79000E-001	-1.12088E-004	10	...........	-327.56
	22211	2221.2	8.83836E-001	1.49438E-002	0.00000E+000	8.85000E-001	-1.17888E-004	10	...........	-327.56
	22217	2221.8	8.89854E-001	1.47889E-002	0.00000E+000	8.91000E-001	-1.17488E-004	10	...........	-327.56
	22223	2222.4	8.95914E-001	1.47863E-002	0.00000E+000	8.97000E-001	-1.16688E-004	10	...........	-327.56
	22229	2223	9.01917E-001	1.51021E-002	0.00000E+000	9.03000E-001	-1.18288E-004	10	...........	-327.56
	22235	2223.6	9.07914E-001	1.47516E-002	0.00000E+000	9.09000E-001	-1.17288E-004	10	...........	-327.56
	22241	2224.2	9.13857E-001	1.52130E-002	0.00000E+000	9.15000E-001	-1.22088E-004	10	...........	-327.56
	22247	2224.8	9.19908E-001	1.48968E-002	0.00000E+000	9.21000E-001	-1.17688E-004	10	...........	-327.56
	22253	2225.4	9.25858E-001	1.50503E-002	0.00000E+000	9.27000E-001	-1.11688E-004	10	...........	-327.56
	22259	2226	9.31862E-001	1.48751E-002	0.00000E+000	9.33000E-001	-1.11088E-004	10	...........	-327.56
	22265	2226.6	9.37795E-001	1.48607E-002	0.00000E+000	9.39000E-001	-1.20688E-004	10	...........	-327.56
	22271	2227.2	9.43849E-001	1.49759E-002	0.00000E+000	9.45000E-001	-1.19688E-004	10	...........	-327.56
	22277	2227.8	9.49828E-001	1.51169E-002	0.00000E+000	9.51000E-001	-1.20288E-004	10	...........	-327.56
	22283	2228.4	9.55863E-001	1.49015E-002	0.00000E+000	9.57000E-001	-1.14688E-004	10	...........	-327.56
	22289	2229	9.61741E-001	1.53381E-002	0.00000E+000	9.63000E-001	-1.21088E-004	10	...........	-327.56
	22295	2229.6	9.67848E-001	1.52417E-002	0.00000E+000	9.69000E-001	-1.24688E-004	10	...........	-327.56
	22301	2230.2	9.73788E-001	1.52239E-002	0.00000E+000	9.75000E-001	-1.18288E-004	10	...........	-327.56
	22307	2230.8	9.79826E-001	1.55176E-002	0.00000E+000	9.81000E-001	-1.11488E-004	10	...........	-327.56
	22313	2231.4	9.85750E-001	1.53843E-002	0.00000E+000	9.87000E-001	-1.17088E-004	10	...........	-327.56
	22319	2232	9.91808E-001	1.56471E-002	0.00000E+000	9.93000E-001	-1.18088E-004	10	...........	-327.56
	22325	2232.6	9.97768E-001	1.58405E-002	0.00000E+000	9.99000E-001	-1.21688E-004	10	...........	-327.56
	22331	2233.2	1.00381E+000	1.57317E-002	0.00000E+000	1.00500E+000	-1.17488E-004	10	...........	-327.56
	22337	2233.8	1.00982E+000	1.58898E-002	0.00000E+000	1.01100E+000	-1.14488E-004	10	...........	-327.56
	22343	2234.4	1.01579E+000	1.60930E-002	0.00000E+000	1.01700E+000	-1.21488E-004	10	...........	-327.56
	22349	2235	1.02175E+000	1.60304E-002	0.00000E+000	1.02300E+000	-1.23488E-004	10	...........	-327.56
	22355	2235.6	1.02776E+000	1.62812E-002	0.00000E+000	1.02900E+000	-1.12288E-004	10	...........	-327.56
	22361	2236.2	1.03377E+000	1.65449E-002	0.00000E+000	1.03500E+000	-1.16888E-004	10	...........	-327.56
	22367	2236.8	1.03969E+000	1.64205E-002	0.00000E+000	1.04100E+000	-1.21088E-004	10	...........	-327.56
	22373	2237.4	1.04570E+000	1.67658E-002	0.00000E+000	1.04700E+000	-1.22688E-004	10	...........	-327.56
	22379	2238	1.05173E+000	1.70482E-002	0.00000E+000	1.05300E+000	-1.20288E-004	10	...........	-327.56
	22385	2238.6	1.05774E+000	1.74236E-002	0.00000E+000	1.05900E+000	-1.21488E-004	10	...........	-327.56
	22391	2239.2	1.06364E+000	1.76653E-002	0.00000E+000	1.06500E+000	-1.19888E-004	10	...........	-327.56
	22397	2239.8	1.06966E+000	1.79497E-002	0.00000E+000	1.07100E+000	-1.21088E-004	10	...........	-327.56
	22403	2240.4	1.07566E+000	1.83137E-002	0.00000E+000	1.07700E+000	-1.12488E-004	10	...........	-327.56
	22409	2241	1.08170E+000	1.87696E-002	0.00000E+000	1.08300E+000	-1.22688E-004	10	...........	-327.56
	22415	2241.6	1.08768E+000	1.91646E-002	0.00000E+000	1.08900E+000	-1.13688E-004	10	...........	-327.56
	22421	2242.2	1.09360E+000	1.94395E-002	0.00000E+000	1.09500E+000	-1.16288E-004	10	...........	-327.56
	22427	2242.8	1.09963E+000	1.98258E-002	0.00000E+000	1.10100E+000	-1.18888E-004	10	...........	-327.56
	22433	2243.4	1.10567E+000	2.04177E-002	0.00000E+000	1.10700E+000	-1.15688E-004	10	...........	-327.56
	22439	2244	1.11165E+000	2.12354E-002	0.00000E+000	1.11300E+000	-1.21888E-004	10	...........	-327.56
	22445	2244.6	1.11758E+000	2.15638E-002	0.00000E+000	1.11900E+000	-1.19088E-004	10	...........	-327.56
	22451	2245.2	1.12358E+000	2.23651E-002	0.00000E+000	1.12500E+000	-1.19288E-004	10	...........	-327.56
	22457	2245.8	1.12956E+000	2.31949E-002	0.00000E+000	1.13100E+000	-1.15288E-004	10	...........	-327.56
	22463	2246.4	1.13554E+000	2.39966E-002	0.00000E+000	1.13700E+000	-1.19088E-004	10	...........	-327.56
	22469	2247	1.14145E+000	2.46611E-002	0.00000E+000	1.14300E+000	-1.14288E-004	10	...........	-327.56
	22475	2247.6	1.14747E+000	2.61999E-002	0.00000E+000	1.14900E+000	-1.15688E-004	10	...........	-327.56
	22481	2248.2	1.15380E+000	2.72401E-002	0.00000E+000	1.15500E+000	-1.15888E-004	11	...........	-327.56
	22487	2248.8	1.15984E+000	2.82615E-002	0.00000E+000	1.16100E+000	-1.12088E-004	11	...........	-327.56
	22493	2249.4	1.16569E+000	2.97052E-002	0.00000E+000	1.16700E+000	-1.17888E-004	11	...........	-327.56
	22499	2250	1.17173E+000	3.11165E-002	0.00000E+000	1.17300E+000	-1.23888E-004	11	...........	-327.56
	22505	2250.6	1.17775E+000	3.28856E-002	0.00000E+000	1.17900E+000	-1.22888E-004	11	...........	-327.56
	22511	2251.2	1.18378E+000	3.48281E-002	0.00000E+000	1.18500E+000	-1.24888E-004	11	...........	-327.56
	22517	2251.8	1.18976E+000	3.63566E-002	0.00000E+000	1.19100E+000	-1.25288E-004	11	...........	-327.56
	22523	2252.4	1.19570E+000	3.84448E-002	0.00000E+000	1.19700E+000	-1.17288E-004	11	...........	-327.56
	22529	2253	1.20171E+000	4.01878E-002	0.00000E+000	1.20300E+000	-1.17088E-004	11	...........	-327.56
	22535	2253.6	1.20776E+000	4.23526E-002	0.00000E+000	1.20900E+000	-1.18888E-004	11	...........	-327.56
	22541	2254.2	1.21373E+000	4.46865E-002	0.00000E+000	1.21500E+000	-1.25888E-004	11	...........	-327.56
	22547	2254.8	1.21965E+000	4.70761E-002	0.00000E+000	1.22100E+000	-1.27488E-004	11	...........	-327.56
	22553	2255.4	1.22567E+000	4.96328E-002	0.00000E+000	1.22700E+000	-1.17488E-004	11	...........	-327.56
	22559	2256	1.23171E+000	5.20299E-002	0.00000E+000	1.23300E+000	-1.18288E-004	11	...........	-327.56
	22565	2256.6	1.23771E+000	5.43475E-002	0.00000E+000	1.23900E+000	-1.16688E-004	11	...........	-327.56
	22571	2257.2	1.24361E+000	5.74564E-002	0.00000E+000	1.24500E+000	-1.17288E-004	11	...........	-327.56
	22577	2257.8	1.24966E+000	6.01011E-002	0.00000E+000	1.25100E+000	-1.15888E-004	11	...........	-327.56
	22583	2258.4	1.25565E+000	6.28989E-002	0.00000E+000	1.25700E+000	-1.20288E-004	11	...........	-327.56
	22589	2259	1.26167E+000	6.64219E-002	0.00000E+000	1.26300E+000	-1.18088E-004	11	...........	-327.56
	22595	2259.6	1.26757E+000	6.97075E-002	0.00000E+000	1.26900E+000	-1.24288E-004	11	...........	-327.56
	22601	2260.2	1.27357E+000	7.31880E-002	0.00000E+000	1.27500E+000	-1.15888E-004	11	...........	-327.56
	22607	2260.8	1.27960E+000	7.71799E-002	0.00000E+000	1.28100E+000	-1.18688E-004	11	...........	-327.56
	22613	2261.4	1.28563E+000	8.03636E-002	0.00000E+000	1.28700E+000	-1.17288E-004	11	...........	-327.56
	22619	2262	1.29164E+000	8.37431E-002	0.00000E+000	1.29300E+000	-1.24288E-004	11	...........	-327.56
	22625	2262.6	1.29756E+000	8.75316E-002	0.00000E+000	1.29900E+000	-1.18088E-004	11	...........	-327.56
	22631	2263.2	1.30357E+000	9.11456E-002	0.00000E+000	1.30500E+000	-1.21088E-004	11	...........	-327.56
	22637	2263.8	1.30958E+000	9.56584E-002	0.00000E+000	1.31100E+000	-1.18688E-004	11	...........	-327.56
	22643	2264.4	1.31560E+000	9.97960E-002	0.00000E+000	1.31700E+000	-1.14088E-004	11	...........	-327.56
	22649	2265	1.32153E+000	1.04085E-001	0.00000E+000	1.32300E+000	-1.15688E-004	11	...........	-327.56
	22655	2265.6	1.32751E+000	1.08455E-001	0.00000E+000	1.32900E+000	-1.17088E-004	11	...........	-327.56
	22661	2266.2	1.33349E+000	1.12671E-001	0.00000E+000	1.33500E+000	-1.17088E-004	11	...........	-327.56
	22667	2266.8	1.33952E+000	1.15582E-001	0.00000E+000	1.34100E+000	-1.16488E-004	11	...........	-327.56
	22673	2267.4	1.34549E+000	1.18852E-001	0.00000E+000	1.34700E+000	-1.16088E-004	11	...........	-327.56
	22679	2268	1.35143E+000	1.23213E-001	0.00000E+000	1.35300E+000	-1.23688E-004	11	...........	-327.56
	22685	2268.6	1.35744E+000	1.27850E-001	0.00000E+000	1.35900E+000	-1.17088E-004	11	...........	-327.56
	22691	2269.2	1.36347E+000	1.32565E-001	0.00000E+000	1.36500E+000	-1.22688E-004	11	...........	-327.56
	22697	2269.8	1.36946E+000	1.37545E-001	0.00000E+000	1.37100E+000	-1.19888E-004	11	...........	-327.56
	22703	2270.4	1.37539E+000	1.42441E-001	0.00000E+000	1.37700E+000	-1.25088E-004	11	...........	-327.56
	22709	2271	1.38139E+000	1.48210E-001	0.00000E+000	1.38300E+000	-1.15488E-004	11	...........	-327.56
	22715	2271.6	1.38741E+000	1.53699E-001	0.00000E+000	1.38900E+000	-1.26288E-004	11	...........	-327.56
	22721	2272.2	1.39342E+000	1.60235E-001	0.00000E+000	1.39500E+000	-1.21688E-004	11	...........	-327.56
	22727	2272.8	1.39933E+000	1.66824E-001	0.00000E+000	1.40100E+000	-1.17088E-004	11	...........	-327.56
	22733	2273.4	1.40533E+000	1.72773E-001	0.00000E+000	1.40700E+000	-1.18288E-004	11	...........	-327.56
	22739	2274	1.41137E+000	1.79374E-001	0.00000E+000	1.41300E+000	-1.24288E-004	11	...........	-327.56
	22745	2274.6	1.41735E+000	1.86588E-001	0.00000E+000	1.41900E+000	-1.20488E-004	11	...........	-327.56
	22751	2275.2	1.42322E+000	1.93904E-001	0.00000E+000	1.42500E+000	-1.19288E-004	11	...........	-327.56
	22757	2275.8	1.42926E+000	2.01270E-001	0.00000E+000	1.43100E+000	-1.24688E-004	11	...........	-327.56
	22763	2276.4	1.43523E+000	2.08467E-001	0.00000E+000	1.43700E+000	-1.15688E-004	11	...........	-327.56
	22769	2277	1.44125E+000	2.15721E-001	0.00000E+000	1.44300E+000	-1.13488E-004	11	...........	-327.56
	22775	2277.6	1.44712E+000	2.23157E-001	0.00000E+000	1.44900E+000	-1.17688E-004	11	...........	-327.56
	22781	2278.2	1.45317E+000	2.30847E-001	0.00000E+000	1.45500E+000	-1.17888E-004	11	...........	-327.56
	22787	2278.8	1.45917E+000	2.37679E-001	0.00000E+000	1.46100E+000	-1.16688E-004	11	...........	-327.56
	22793	2279.4	1.46520E+000	2.44630E-001	0.00000E+000	1.46700E+000	-1.17288E-004	11	...........	-327.56
	22799	2280	1.47119E+000	2.48659E-001	0.00000E+000	1.47300E+000	-1.22088E-004	11	...........	-327.56
	22805	2280.6	1.47712E+000	2.56005E-001	0.00000E+000	1.47900E+000	-1.19288E-004	11	...........	-327.56
	22811	2281.2	1.48314E+000	2.63062E-001	0.00000E+000	1.48500E+000	-1.20488E-004	11	...........	-327.56
	22817	2281.8	1.48946E+000	2.70074E-001	0.00000E+000	1.49100E+000	-1.21488E-004	12	...........	-327.56
	22823	2282.4	1.49541E+000	2.77854E-001	0.00000E+000	1.49700E+000	-1.20688E-004	12	...........	-327.56
	22829	2283	1.50134E+000	2.85405E-001	0.00000E+000	1.50300E+000	-1.12488E-004	12	...........	-327.56
	22835	2283.6	1.50736E+000	2.93976E-001	0.00000E+000	1.50900E+000	-1.22288E-004	12	...........	-327.56
	22841	2284.2	1.51341E+000	2.98920E-001	0.00000E+000	1.51500E+000	-1.23088E-004	12	...........	-327.56
	22847	2284.8	1.51938E+000	3.05063E-001	0.00000E+000	1.52100E+000	-1.15688E-004	12	...........	-327.56
	22853	2285.4	1.52529E+000	3.13283E-001	0.00000E+000	1.52700E+000	-1.29088E-004	12	...........	-327.56
	22859	2286	1.53133E+000	3.18722E-001	0.00000E+000	1.53300E+000	-1.23288E-004	12	...........	-327.56
	22865	2286.6	1.53730E+000	3.25892E-001	0.00000E+000	1.53900E+000	-1.21088E-004	12	...........	-327.56
	22871	2287.2	1.54331E+000	3.32023E-001	0.00000E+000	1.54500E+000	-1.23488E-004	12	...........	-327.56
	22877	2287.8	1.54921E+000	3.39251E-001	0.00000E+000	1.55100E+000	-1.24488E-004	12	...........	-327.56
	22883	2288.4	1.55522E+000	3.46919E-001	0.00000E+000	1.55700E+000	-1.18888E-004	12	...........	-327.56
	22889	2289	1.56124E+000	3.54060E-001	0.00000E+000	1.56300E+000	-1.23488E-004	12	...........	-327.56
	22895	2289.6	1.56726E+000	3.62996E-001	0.00000E+000	1.56900E+000	-1.15488E-004	12	...........	-327.56
	22901	2290.2	1.57328E+000	3.72729E-001	0.00000E+000	1.57500E+000	-1.21688E-004	12	...........	-327.56
	22907	2290.8	1.57917E+000	3.78103E-001	0.00000E+000	1.58100E+000	-1.22088E-004	12	...........	-327.56
	22913	2291.4	1.58521E+000	3.86097E-001	0.00000E+000	1.58700E+000	-1.22088E-004	12	...........	-327.56
	22919	2292	1.59122E+000	3.95987E-001	0.00000E+000	1.59300E+000	-1.19688E-004	12	...........	-327.56
	22925	2292.6	1.59723E+000	4.19379E-001	0.00000E+000	1.59900E+000	-1.15888E-004	12	...........	-327.56
	22931	2293.2	1.60315E+000	4.16894E-001	0.00000E+000	1.60500E+000	-1.18688E-004	12	...........	-327.56
	22937	2293.8	1.60915E+000	4.37655E-001	0.00000E+000	1.61100E+000	-1.27688E-004	12	...........	-327.56
	22943	2294.4	1.61517E+000	4.55250E-001	0.00000E+000	1.61700E+000	-1.15288E-004	12	...........	-327.56
	22949	2295	1.62119E+000	4.43836E-001	0.00000E+000	1.62300E+000	-1.19488E-004	12	...........	-327.56
	22955	2295.6	1.62712E+000	4.55293E-001	0.00000E+000	1.62900E+000	-1.12688E-004	12	...........	-327.56
	22961	2296.2	1.63310E+000	4.66262E-001	0.00000E+000	1.63500E+000	-1.23288E-004	12	...........	-327.56
	22967	2296.8	1.63914E+000	4.85049E-001	0.00000E+000	1.64100E+000	-1.15088E-004	12	...........	-327.56
	22973	2297.4	1.64513E+000	4.90108E-001	0.00000E+000	1.64700E+000	-1.24288E-004	12	...........	-327.56
	22979	2298	1.65109E+000	5.09159E-001	0.00000E+000	1.65300E+000	-1.20288E-004	12	...........	-327.56
	22985	2298.6	1.65704E+000	5.03684E-001	0.00000E+000	1.65900E+000	-1.21488E-004	12	...........	-327.56
	22991	2299.2	1.66303E+000	5.38087E-001	0.00000E+000	1.66500E+000	-1.22488E-004	12	...........	-327.56
	22997	2299.8	1.66909E+000	5.40669E-001	0.00000E+000	1.67100E+000	-1.15888E-004	12	...........	-327.56
	23003	2300.4	1.67507E+000	5.58649E-001	0.00000E+000	1.67700E+000	-1.18688E-004	12	...........	-327.56
	23009	2301	1.68100E+000	5.60368E-001	0.00000E+000	1.68300E+000	-1.20488E-004	12	...........	-327.56
	23015	2301.6	1.68702E+000	5.58765E-001	0.00000E+000	1.68900E+000	-1.12488E-004	12	...........	-327.56
	23021	2302.2	1.69303E+000	6.01291E-001	0.00000E+000	1.69500E+000	-1.22888E-004	12	...........	-327.56
	23026	2302.7	1.69802E+000	6.03945E-001	0.00000E+000	1.70000E+000	-1.20488E-004	12	...........	-327.56