File: testing/data/240902_12_MCL13_cswWE_CV2_750C_CO2.DTA
EXPLAIN
TAG	CV
TITLE	LABEL	Cyclic Voltammetry	Test Identifier
DATE	LABEL	9/3/2024	Date
TIME	LABEL	6:51:01	Time
NOTES	NOTES	5	Notes...
	cswWE - carbon steel wire
cspWE - carbon steel plate 2x2 tapered

Carbon steel plate counter electrode
Carbon steel wire reference electrode
PSTAT	PSTAT	REF3000-48128	Potentiostat
VINIT	POTEN	0.00000E+000	T	Initial E (V)
VLIMIT1	POTEN	1.70000E+000	F	Scan Limit 1 (V)
VLIMIT2	POTEN	-3.00000E-001	F	Scan Limit 2 (V)
VFINAL	POTEN	1.70000E+000	F	Final E (V)
SCANRATE	QUANT	2.00000E+000	Scan Rate (mV/s)
STEPSIZE	QUANT	1.00000E+000	Step Size (mV)
CYCLES	IQUANT	2	Cycles (#)
IMODE	SELECTOR	0	I/E Range Mode
IRANGE	QUANT	3.00000E-001	Max Current (mA)
AREA	QUANT	1.00000E+000	Sample Area (cm^2)
EQDELAY	QUANT	0.00000E+000	Equil. Time (s)
IRCOMP	SELECTOR	0	IRComp
PFCOR	QUANT	5.00000E+001	PF Corr. (ohm)
SAMPLINGMODE	SELECTOR	1	Sampling Mode
EOC	QUANT	0.5099545	Open Circuit (V)
ELECTRODETYPE	SELECTOR	0	Electrode Type
STRIPPING	TOGGLE	F	Used for Stripping
SEQUENCER	TOGGLE	TRUE	Run as Sequence
PSTATMODEL	IQUANT	5	Pstat Model
PSTATSECTION	LABEL	REF3000-48128	Pstat Section
PSTATSERIALNO	LABEL	48128	Pstat Serial Number
CTRLMODE	IQUANT	1	Control Mode
ELECTROMETER	IQUANT	0	RE=0 or CS=1
IESTAB	IQUANT	2	I/E Stability
CASPEED	IQUANT	4	Control Amp Speed
CONVENTION	IQUANT	1	Current Convention
ICHRANGE	IQUANT	2	Ich Range
ICHRANGEMODE	TOGGLE	F	Ich Auto Range
ICHOFFSETENABLE	TOGGLE	F	Ich Offset Enable
ICHOFFSET	QUANT	0	Ich Offset (V)
ICHFILTER	IQUANT	3	Ich Filter
VCHRANGE	IQUANT	2	Vch Range
VCHRANGEMODE	TOGGLE	F	Vch Auto Range
VCHOFFSETENABLE	TOGGLE	F	Vch Offset Enable
VCHOFFSET	QUANT	0	Vch Offset (V)
VCHFILTER	IQUANT	3	Vch Filter
ACHRANGE	IQUANT	2	Ach Range
ACHOFFSETENABLE	TOGGLE	F	Ach Offset Enable
ACHOFFSET	QUANT	0	Ach Offset (V)
ACHFILTER	IQUANT	1	Ach Filter
IERANGELOWERLIMIT	IQUANT	2	I/E Range Lower Limit
IERANGEMODE	TOGGLE	T	I/E AutoRange
IERANGE	IQUANT	9	I/E Range
POSFEEDENABLE	TOGGLE	F	Positive Feedback IR Comp
POSFEEDRESISTANCE	QUANT	0	Positive Feedback Resistance (ohm)
ACHSELECT	IQUANT	4	Ach Select
SENSECABLEID	IQUANT	14	Sense Cable ID
PWRCABLEID	IQUANT	7	Power Cable ID
DCCALDATE	LABEL	8/16/2024	DC Calibration Date
ACCALDATE	LABEL	8/16/2024	AC Calibration Date
THERMOSELECT	IQUANT	1	Thermo Select
FRAMEWORKVERSION	LABEL	7.10.3	Framework Version
INSTRUMENTVERSION	LABEL	4.91	Instrument Version
COMMVERSION	LABEL	5.10	Communications Version
CPUPLDVERSION	LABEL	6.00	CPU PLD Version
CTRLPLDVERSION	LABEL	3.21	CTRL PLD Version
PSTATPLDVERSION	LABEL	0.00	PSTAT PLD Version
COMPLIANCEVOLTAGE	IQUANT	0	Compliance Voltage
CURVE1	TABLE
	Pt	T	Vf	Im	Vu	Sig	Ach	IERange	Over	Temp
	#	s	V vs. Ref.	A	V	V	V	#	bits	deg C
	0	0.5	5.09354E-001	4.72247E-004	0.00000E+000	5.09950E-001	-1.08721E-004	9	...........	-327.56
	7	4	5.16127E-001	2.23585E-003	0.00000E+000	5.16950E-001	-1.11188E-004	9	...........	-327.56
	14	7.5	5.23390E-001	3.45087E-003	0.00000E+000	5.23950E-001	-1.06755E-004	10	...........	-327.56
	21	11	5.30294E-001	4.38366E-003	0.00000E+000	5.30950E-001	-1.08555E-004	10	...........	-327.56
	28	14.5	5.37307E-001	5.13199E-003	0.00000E+000	5.37950E-001	-1.08221E-004	10	...........	-327.56
	35	18	5.44323E-001	5.72868E-003	0.00000E+000	5.44950E-001	-1.07921E-004	10	...........	-327.56
	42	21.5	5.51197E-001	6.20734E-003	0.00000E+000	5.51950E-001	-1.12821E-004	10	...........	-327.56
	49	25	5.58310E-001	6.63217E-003	0.00000E+000	5.58950E-001	-1.18155E-004	10	...........	-327.56
	56	28.5	5.65276E-001	7.05232E-003	0.00000E+000	5.65950E-001	-1.21888E-004	10	...........	-327.56
	63	32	5.72274E-001	7.38690E-003	0.00000E+000	5.72950E-001	-1.18888E-004	10	...........	-327.56
	70	35.5	5.79184E-001	7.65349E-003	0.00000E+000	5.79950E-001	-1.17488E-004	10	...........	-327.56
	77	39	5.86222E-001	7.93250E-003	0.00000E+000	5.86950E-001	-1.14921E-004	10	...........	-327.56
	84	42.5	5.93232E-001	8.10617E-003	0.00000E+000	5.93950E-001	-1.19221E-004	10	...........	-327.56
	91	46	6.00268E-001	8.29347E-003	0.00000E+000	6.00950E-001	-1.15888E-004	10	...........	-327.56
	98	49.5	6.07174E-001	8.41983E-003	0.00000E+000	6.07950E-001	-1.15588E-004	10	...........	-327.56
	105	53	6.14253E-001	8.52911E-003	0.00000E+000	6.14950E-001	-1.16988E-004	10	...........	-327.56
	112	56.5	6.21203E-001	8.61646E-003	0.00000E+000	6.21950E-001	-1.16388E-004	10	...........	-327.56
	119	60	6.28134E-001	8.69915E-003	0.00000E+000	6.28950E-001	-1.17521E-004	10	...........	-327.56
	126	63.5	6.35164E-001	8.71301E-003	0.00000E+000	6.35950E-001	-1.19188E-004	10	...........	-327.56
	133	67	6.42194E-001	8.73740E-003	0.00000E+000	6.42950E-001	-1.20588E-004	10	...........	-327.56
	140	70.5	6.49202E-001	8.71631E-003	0.00000E+000	6.49950E-001	-1.16888E-004	10	...........	-327.56
	147	74	6.56120E-001	8.71713E-003	0.00000E+000	6.56950E-001	-1.17188E-004	10	...........	-327.56
	154	77.5	6.63141E-001	8.74980E-003	0.00000E+000	6.63950E-001	-1.18021E-004	10	...........	-327.56
	161	81	6.70198E-001	8.74436E-003	0.00000E+000	6.70950E-001	-1.13321E-004	10	...........	-327.56
	168	84.5	6.77188E-001	8.70942E-003	0.00000E+000	6.77950E-001	-1.16821E-004	10	...........	-327.56
	175	88	6.84117E-001	8.69978E-003	0.00000E+000	6.84950E-001	-1.17621E-004	10	...........	-327.56
	182	91.5	6.91142E-001	8.70669E-003	0.00000E+000	6.91950E-001	-1.18855E-004	10	...........	-327.56
	189	95	6.98179E-001	8.63423E-003	0.00000E+000	6.98950E-001	-1.13488E-004	10	...........	-327.56
	196	98.5	7.05056E-001	8.62398E-003	0.00000E+000	7.05950E-001	-1.20821E-004	10	...........	-327.56
	203	102	7.12108E-001	8.55160E-003	0.00000E+000	7.12950E-001	-1.20621E-004	10	...........	-327.56
	210	105.5	7.19098E-001	8.49554E-003	0.00000E+000	7.19950E-001	-1.13855E-004	10	...........	-327.56
	217	109	7.26115E-001	8.45118E-003	0.00000E+000	7.26950E-001	-1.17455E-004	10	...........	-327.56
	224	112.5	7.33026E-001	8.37512E-003	0.00000E+000	7.33950E-001	-1.16455E-004	10	...........	-327.56
	231	116	7.40048E-001	8.26818E-003	0.00000E+000	7.40950E-001	-1.16321E-004	10	...........	-327.56
	238	119.5	7.47100E-001	8.18307E-003	0.00000E+000	7.47950E-001	-1.17888E-004	10	...........	-327.56
	245	123	7.54113E-001	8.13422E-003	0.00000E+000	7.54950E-001	-1.16355E-004	10	...........	-327.56
	252	126.5	7.61055E-001	8.07143E-003	0.00000E+000	7.61950E-001	-1.17488E-004	10	...........	-327.56
	259	130	7.68059E-001	7.96410E-003	0.00000E+000	7.68950E-001	-1.16921E-004	10	...........	-327.56
	266	133.5	7.75081E-001	7.89106E-003	0.00000E+000	7.75950E-001	-1.14455E-004	10	...........	-327.56
	273	137	7.81999E-001	7.83606E-003	0.00000E+000	7.82950E-001	-1.19255E-004	10	...........	-327.56
	280	140.5	7.89037E-001	7.76617E-003	0.00000E+000	7.89950E-001	-1.15555E-004	10	...........	-327.56
	287	144	7.96051E-001	7.71453E-003	0.00000E+000	7.96950E-001	-1.16655E-004	10	...........	-327.56
	294	147.5	8.03069E-001	7.60790E-003	0.00000E+000	8.03950E-001	-1.15821E-004	10	...........	-327.56
	301	151	8.09994E-001	7.57287E-003	0.00000E+000	8.10950E-001	-1.16821E-004	10	...........	-327.56
	308	154.5	8.17035E-001	7.52314E-003	0.00000E+000	8.17950E-001	-1.17688E-004	10	...........	-327.56
	315	158	8.24003E-001	7.46141E-003	0.00000E+000	8.24950E-001	-1.15021E-004	10	...........	-327.56
	322	161.5	8.31012E-001	7.41567E-003	0.00000E+000	8.31950E-001	-1.12521E-004	10	...........	-327.56
	329	165	8.37949E-001	7.35793E-003	0.00000E+000	8.38950E-001	-1.15888E-004	10	...........	-327.56
	336	168.5	8.44968E-001	7.34104E-003	0.00000E+000	8.45950E-001	-1.17455E-004	10	...........	-327.56
	343	172	8.51987E-001	7.32613E-003	0.00000E+000	8.52950E-001	-1.15121E-004	10	...........	-327.56
	350	175.5	8.58997E-001	7.33561E-003	0.00000E+000	8.59950E-001	-1.19355E-004	10	...........	-327.56
	357	179	8.65943E-001	7.34066E-003	0.00000E+000	8.66950E-001	-1.13821E-004	10	...........	-327.56
	364	182.5	8.72976E-001	7.78384E-003	0.00000E+000	8.73950E-001	-1.17388E-004	10	...........	-327.56
	371	186	8.79976E-001	7.42750E-003	0.00000E+000	8.80950E-001	-1.18121E-004	10	...........	-327.56
	378	189.5	8.86906E-001	7.39819E-003	0.00000E+000	8.87950E-001	-1.13721E-004	10	...........	-327.56
	385	193	8.93936E-001	7.39348E-003	0.00000E+000	8.94950E-001	-1.17288E-004	10	...........	-327.56
	392	196.5	9.00969E-001	7.46569E-003	0.00000E+000	9.01950E-001	-1.18155E-004	10	...........	-327.56
	399	200	9.07958E-001	7.56563E-003	0.00000E+000	9.08950E-001	-1.18688E-004	10	...........	-327.56
	406	203.5	9.14915E-001	7.66662E-003	0.00000E+000	9.15950E-001	-1.18488E-004	10	...........	-327.56
	413	207	9.21873E-001	7.84031E-003	0.00000E+000	9.22950E-001	-1.13355E-004	10	...........	-327.56
	420	210.5	9.28903E-001	8.01158E-003	0.00000E+000	9.29950E-001	-1.14988E-004	10	...........	-327.56
	427	214	9.35911E-001	8.26941E-003	0.00000E+000	9.36950E-001	-1.18288E-004	10	...........	-327.56
	434	217.5	9.42841E-001	8.61224E-003	0.00000E+000	9.43950E-001	-1.17088E-004	10	...........	-327.56
	441	221	9.49858E-001	9.04355E-003	0.00000E+000	9.50950E-001	-1.17255E-004	10	...........	-327.56
	448	224.5	9.56880E-001	9.55764E-003	0.00000E+000	9.57950E-001	-1.16655E-004	10	...........	-327.56
	455	228	9.63799E-001	1.02315E-002	0.00000E+000	9.64950E-001	-1.19088E-004	10	...........	-327.56
	462	231.5	9.70801E-001	1.09693E-002	0.00000E+000	9.71950E-001	-1.18221E-004	10	...........	-327.56
	469	235	9.77825E-001	1.18013E-002	0.00000E+000	9.78950E-001	-1.16155E-004	10	...........	-327.56
	476	238.5	9.84798E-001	1.27527E-002	0.00000E+000	9.85950E-001	-1.17155E-004	10	...........	-327.56
	483	242	9.91773E-001	1.38556E-002	0.00000E+000	9.92950E-001	-1.14721E-004	10	...........	-327.56
	490	245.5	9.98751E-001	1.51319E-002	0.00000E+000	9.99950E-001	-1.12421E-004	10	...........	-327.56
	497	249	1.00574E+000	1.64468E-002	0.00000E+000	1.00695E+000	-1.20188E-004	10	...........	-327.56
	504	252.5	1.01272E+000	1.79017E-002	0.00000E+000	1.01395E+000	-1.18921E-004	10	...........	-327.56
	511	256	1.01965E+000	1.94752E-002	0.00000E+000	1.02095E+000	-1.14588E-004	10	...........	-327.56
	518	259.5	1.02665E+000	2.12495E-002	0.00000E+000	1.02795E+000	-1.14921E-004	10	...........	-327.56
	525	263	1.03363E+000	2.29839E-002	0.00000E+000	1.03495E+000	-1.15721E-004	10	...........	-327.56
	532	266.5	1.04055E+000	2.48074E-002	0.00000E+000	1.04195E+000	-1.14021E-004	10	...........	-327.56
	539	270	1.04752E+000	2.67377E-002	0.00000E+000	1.04895E+000	-1.15255E-004	10	...........	-327.56
	546	273.5	1.05486E+000	2.89582E-002	0.00000E+000	1.05595E+000	-1.18755E-004	11	...........	-327.56
	553	277	1.06184E+000	3.10891E-002	0.00000E+000	1.06295E+000	-1.18355E-004	11	...........	-327.56
	560	280.5	1.06879E+000	3.34311E-002	0.00000E+000	1.06995E+000	-1.21288E-004	11	...........	-327.56
	567	284	1.07582E+000	3.57853E-002	0.00000E+000	1.07695E+000	-1.13655E-004	11	...........	-327.56
	574	287.5	1.08284E+000	3.82958E-002	0.00000E+000	1.08395E+000	-1.14021E-004	11	...........	-327.56
	581	291	1.08976E+000	4.09162E-002	0.00000E+000	1.09095E+000	-1.17721E-004	11	...........	-327.56
	588	294.5	1.09675E+000	4.37698E-002	0.00000E+000	1.09795E+000	-1.17488E-004	11	...........	-327.56
	595	298	1.10382E+000	4.66383E-002	0.00000E+000	1.10495E+000	-1.19488E-004	11	...........	-327.56
	602	301.5	1.11081E+000	4.96396E-002	0.00000E+000	1.11195E+000	-1.14455E-004	11	...........	-327.56
	609	305	1.11774E+000	5.28154E-002	0.00000E+000	1.11895E+000	-1.19188E-004	11	...........	-327.56
	616	308.5	1.12474E+000	5.60990E-002	0.00000E+000	1.12595E+000	-1.17155E-004	11	...........	-327.56
	623	312	1.13171E+000	5.95392E-002	0.00000E+000	1.13295E+000	-1.15855E-004	11	...........	-327.56
	630	315.5	1.13866E+000	6.30183E-002	0.00000E+000	1.13995E+000	-1.16921E-004	11	...........	-327.56
	637	319	1.14562E+000	6.66303E-002	0.00000E+000	1.14695E+000	-1.16188E-004	11	...........	-327.56
	644	322.5	1.15266E+000	7.03351E-002	0.00000E+000	1.15395E+000	-1.13121E-004	11	...........	-327.56
	651	326	1.15971E+000	7.42468E-002	0.00000E+000	1.16095E+000	-1.18355E-004	11	...........	-327.56
	658	329.5	1.16659E+000	7.84350E-002	0.00000E+000	1.16795E+000	-1.18288E-004	11	...........	-327.56
	665	333	1.17360E+000	8.28324E-002	0.00000E+000	1.17495E+000	-1.16555E-004	11	...........	-327.56
	672	336.5	1.18067E+000	8.76859E-002	0.00000E+000	1.18195E+000	-1.17321E-004	11	...........	-327.56
	679	340	1.18765E+000	9.26465E-002	0.00000E+000	1.18895E+000	-1.16988E-004	11	...........	-327.56
	686	343.5	1.19457E+000	9.79816E-002	0.00000E+000	1.19595E+000	-1.16521E-004	11	...........	-327.56
	693	347	1.20155E+000	1.03585E-001	0.00000E+000	1.20295E+000	-1.16255E-004	11	...........	-327.56
	700	350.5	1.20860E+000	1.09693E-001	0.00000E+000	1.20995E+000	-1.12988E-004	11	...........	-327.56
	707	354	1.21557E+000	1.16219E-001	0.00000E+000	1.21695E+000	-1.20388E-004	11	...........	-327.56
	714	357.5	1.22249E+000	1.23119E-001	0.00000E+000	1.22395E+000	-1.16955E-004	11	...........	-327.56
	721	361	1.22951E+000	1.30581E-001	0.00000E+000	1.23095E+000	-1.09888E-004	11	...........	-327.56
	728	364.5	1.23655E+000	1.38575E-001	0.00000E+000	1.23795E+000	-1.15788E-004	11	...........	-327.56
	735	368	1.24344E+000	1.47227E-001	0.00000E+000	1.24495E+000	-1.16088E-004	11	...........	-327.56
	742	371.5	1.25043E+000	1.56211E-001	0.00000E+000	1.25195E+000	-1.17255E-004	11	...........	-327.56
	749	375	1.25750E+000	1.65598E-001	0.00000E+000	1.25895E+000	-1.18255E-004	11	...........	-327.56
	756	378.5	1.26447E+000	1.75824E-001	0.00000E+000	1.26595E+000	-1.14921E-004	11	...........	-327.56
	763	382	1.27139E+000	1.86449E-001	0.00000E+000	1.27295E+000	-1.16555E-004	11	...........	-327.56
	770	385.5	1.27837E+000	1.97479E-001	0.00000E+000	1.27995E+000	-1.19188E-004	11	...........	-327.56
	777	389	1.28539E+000	2.08995E-001	0.00000E+000	1.28695E+000	-1.11688E-004	11	...........	-327.56
	784	392.5	1.29235E+000	2.21080E-001	0.00000E+000	1.29395E+000	-1.15155E-004	11	...........	-327.56
	791	396	1.29927E+000	2.33653E-001	0.00000E+000	1.30095E+000	-1.17421E-004	11	...........	-327.56
	798	399.5	1.30628E+000	2.46724E-001	0.00000E+000	1.30795E+000	-1.12455E-004	11	...........	-327.56
	805	403	1.31329E+000	2.60022E-001	0.00000E+000	1.31495E+000	-1.12621E-004	11	...........	-327.56
	812	406.5	1.32048E+000	2.74482E-001	0.00000E+000	1.32195E+000	-1.17655E-004	12	...........	-327.56
	819	410	1.32750E+000	2.88358E-001	0.00000E+000	1.32895E+000	-1.14688E-004	12	...........	-327.56
	826	413.5	1.33446E+000	3.02644E-001	0.00000E+000	1.33595E+000	-1.16055E-004	12	...........	-327.56
	833	417	1.34147E+000	3.17189E-001	0.00000E+000	1.34295E+000	-1.14821E-004	12	...........	-327.56
	840	420.5	1.34837E+000	3.32086E-001	0.00000E+000	1.34995E+000	-1.14421E-004	12	...........	-327.56
	847	424	1.35540E+000	3.46081E-001	0.00000E+000	1.35695E+000	-1.12821E-004	12	...........	-327.56
	854	427.5	1.36241E+000	3.61677E-001	0.00000E+000	1.36395E+000	-1.17455E-004	12	...........	-327.56
	861	431	1.36942E+000	3.77555E-001	0.00000E+000	1.37095E+000	-1.17621E-004	12	...........	-327.56
	868	434.5	1.37635E+000	3.92221E-001	0.00000E+000	1.37795E+000	-1.10755E-004	12	...........	-327.56
	875	438	1.38336E+000	4.08724E-001	0.00000E+000	1.38495E+000	-1.17588E-004	12	...........	-327.56
	882	441.5	1.39036E+000	4.25403E-001	0.00000E+000	1.39195E+000	-1.23555E-004	12	...........	-327.56
	889	445	1.39726E+000	4.42094E-001	0.00000E+000	1.39895E+000	-1.17688E-004	12	...........	-327.56
	896	448.5	1.40428E+000	4.59217E-001	0.00000E+000	1.40595E+000	-1.15021E-004	12	...........	-327.56
	903	452	1.41131E+000	4.78647E-001	0.00000E+000	1.41295E+000	-1.12488E-004	12	...........	-327.56
	910	455.5	1.41831E+000	4.95645E-001	0.00000E+000	1.41995E+000	-1.13721E-004	12	...........	-327.56
	917	459	1.42522E+000	5.13235E-001	0.00000E+000	1.42695E+000	-1.14455E-004	12	...........	-327.56
	924	462.5	1.43223E+000	5.30506E-001	0.00000E+000	1.43395E+000	-1.13821E-004	12	...........	-327.56
	931	466	1.43922E+000	5.50611E-001	0.00000E+000	1.44095E+000	-1.15688E-004	12	...........	-327.56
	938	469.5	1.44623E+000	5.68481E-001	0.00000E+000	1.44795E+000	-1.13855E-004	12	...........	-327.56
	945	473	1.45314E+000	5.86180E-001	0.00000E+000	1.45495E+000	-1.12788E-004	12	...........	-327.56
	952	476.5	1.46019E+000	6.04407E-001	0.00000E+000	1.46195E+000	-1.13988E-004	12	...........	-327.56
	959	480	1.46719E+000	6.22904E-001	0.00000E+000	1.46895E+000	-1.14855E-004	12	...........	-327.56
	966	483.5	1.47408E+000	6.42069E-001	0.00000E+000	1.47595E+000	-1.16921E-004	12	...........	-327.56
	973	487	1.48109E+000	6.62270E-001	0.00000E+000	1.48295E+000	-1.16455E-004	12	...........	-327.56
	980	490.5	1.48811E+000	6.80775E-001	0.00000E+000	1.48995E+000	-1.17255E-004	12	...........	-327.56
	987	494	1.49511E+000	7.00592E-001	0.00000E+000	1.49695E+000	-1.12688E-004	12	...........	-327.56
	994	497.5	1.50202E+000	7.17921E-001	0.00000E+000	1.50395E+000	-1.15921E-004	12	...........	-327.56
	1001	501	1.50903E+000	7.35113E-001	0.00000E+000	1.51095E+000	-1.10455E-004	12	...........	-327.56
	1008	504.5	1.51604E+000	7.55607E-001	0.00000E+000	1.51795E+000	-1.16688E-004	12	...........	-327.56
	1015	508	1.52304E+000	7.72654E-001	0.00000E+000	1.52495E+000	-1.13421E-004	12	...........	-327.56
	1022	511.5	1.52997E+000	7.89795E-001	0.00000E+000	1.53195E+000	-1.17988E-004	12	...........	-327.56
	1029	515	1.53693E+000	8.06537E-001	0.00000E+000	1.53895E+000	-1.17955E-004	12	...........	-327.56
	1036	518.5	1.54394E+000	8.24340E-001	0.00000E+000	1.54595E+000	-1.15488E-004	12	...........	-327.56
	1043	522	1.55085E+000	8.41098E-001	0.00000E+000	1.55295E+000	-1.15588E-004	12	...........	-327.56
	1050	525.5	1.55785E+000	8.60663E-001	0.00000E+000	1.55995E+000	-1.17088E-004	12	...........	-327.56
	1057	529	1.56490E+000	8.77223E-001	0.00000E+000	1.56695E+000	-1.15021E-004	12	...........	-327.56
	1064	532.5	1.57188E+000	8.92222E-001	0.00000E+000	1.57395E+000	-1.11821E-004	12	...........	-327.56
	1071	536	1.57880E+000	9.09483E-001	0.00000E+000	1.58095E+000	-1.16721E-004	12	...........	-327.56
	1078	539.5	1.58583E+000	9.27189E-001	0.00000E+000	1.58795E+000	-1.14821E-004	12	...........	-327.56
	1085	543	1.59284E+000	9.47123E-001	0.00000E+000	1.59495E+000	-1.13821E-004	12	...........	-327.56
	1092	546.5	1.59983E+000	9.54889E-001	0.00000E+000	1.60195E+000	-1.14721E-004	12	...........	-327.56
	1099	550	1.60677E+000	9.69241E-001	0.00000E+000	1.60895E+000	-1.13788E-004	12	...........	-327.56
	1106	553.5	1.61378E+000	9.86902E-001	0.00000E+000	1.61595E+000	-1.17088E-004	12	...........	-327.56
	1113	557	1.62080E+000	1.00427E+000	0.00000E+000	1.62295E+000	-1.16088E-004	12	...........	-327.56
	1120	560.5	1.62771E+000	1.01671E+000	0.00000E+000	1.62995E+000	-1.18555E-004	12	...........	-327.56
	1127	564	1.63471E+000	1.03301E+000	0.00000E+000	1.63695E+000	-1.12788E-004	12	...........	-327.56
	1134	567.5	1.64173E+000	1.04654E+000	0.00000E+000	1.64395E+000	-1.14721E-004	12	...........	-327.56
	1141	571	1.64870E+000	1.06379E+000	0.00000E+000	1.65095E+000	-1.11488E-004	12	...........	-327.56
	1148	574.5	1.65564E+000	1.07522E+000	0.00000E+000	1.65795E+000	-1.14988E-004	12	...........	-327.56
	1155	578	1.66265E+000	1.09366E+000	0.00000E+000	1.66495E+000	-1.12421E-004	12	...........	-327.56
	1162	581.5	1.66970E+000	1.10686E+000	0.00000E+000	1.67195E+000	-1.17821E-004	12	...........	-327.56
	1169	585	1.67668E+000	1.12159E+000	0.00000E+000	1.67895E+000	-1.16221E-004	12	...........	-327.56
	1176	588.5	1.68360E+000	1.13671E+000	0.00000E+000	1.68595E+000	-1.15121E-004	12	...........	-327.56
	1183	592	1.69064E+000	1.14623E+000	0.00000E+000	1.69295E+000	-1.16788E-004	12	...........	-327.56
	1190	595.5	1.69765E+000	1.15605E+000	0.00000E+000	1.69995E+000	-1.20121E-004	12	...........	-327.56
	1197	599	1.69062E+000	1.15400E+000	0.00000E+000	1.69295E+000	-1.17788E-004	12	...........	-327.56
	1204	602.5	1.68361E+000	1.13089E+000	0.00000E+000	1.68595E+000	-1.12655E-004	12	...........	-327.56
	1211	606	1.67670E+000	1.11483E+000	0.00000E+000	1.67895E+000	-1.16221E-004	12	...........	-327.56
	1218	609.5	1.66969E+000	1.10121E+000	0.00000E+000	1.67195E+000	-1.19621E-004	12	...........	-327.56
	1225	613	1.66265E+000	1.09524E+000	0.00000E+000	1.66495E+000	-1.13788E-004	12	...........	-327.56
	1232	616.5	1.65565E+000	1.08001E+000	0.00000E+000	1.65795E+000	-1.14988E-004	12	...........	-327.56
	1239	620	1.64872E+000	1.05986E+000	0.00000E+000	1.65095E+000	-1.14388E-004	12	...........	-327.56
	1246	623.5	1.64173E+000	1.04990E+000	0.00000E+000	1.64395E+000	-1.15921E-004	12	...........	-327.56
	1253	627	1.63472E+000	1.02855E+000	0.00000E+000	1.63695E+000	-1.14655E-004	12	...........	-327.56
	1260	630.5	1.62771E+000	1.01489E+000	0.00000E+000	1.62995E+000	-1.20521E-004	12	...........	-327.56
	1267	634	1.62078E+000	1.00316E+000	0.00000E+000	1.62295E+000	-1.16388E-004	12	...........	-327.56
	1274	637.5	1.61378E+000	9.89316E-001	0.00000E+000	1.61595E+000	-1.16255E-004	12	...........	-327.56
	1281	641	1.60675E+000	9.74705E-001	0.00000E+000	1.60895E+000	-1.14455E-004	12	...........	-327.56
	1288	644.5	1.59982E+000	9.65849E-001	0.00000E+000	1.60195E+000	-1.11855E-004	12	...........	-327.56
	1295	648	1.59281E+000	9.45484E-001	0.00000E+000	1.59495E+000	-1.15155E-004	12	...........	-327.56
	1302	651.5	1.58583E+000	9.33469E-001	0.00000E+000	1.58795E+000	-1.15588E-004	12	...........	-327.56
	1309	655	1.57879E+000	9.18734E-001	0.00000E+000	1.58095E+000	-1.15788E-004	12	...........	-327.56
	1316	658.5	1.57187E+000	9.04679E-001	0.00000E+000	1.57395E+000	-1.13555E-004	12	...........	-327.56
	1323	662	1.56487E+000	8.86375E-001	0.00000E+000	1.56695E+000	-1.18988E-004	12	...........	-327.56
	1330	665.5	1.55786E+000	8.78636E-001	0.00000E+000	1.55995E+000	-1.18521E-004	12	...........	-327.56
	1337	669	1.55081E+000	8.62354E-001	0.00000E+000	1.55295E+000	-1.15488E-004	12	...........	-327.56
	1344	672.5	1.54392E+000	8.47788E-001	0.00000E+000	1.54595E+000	-1.15821E-004	12	...........	-327.56
	1351	676	1.53690E+000	8.31720E-001	0.00000E+000	1.53895E+000	-1.14955E-004	12	...........	-327.56
	1358	679.5	1.52994E+000	8.18137E-001	0.00000E+000	1.53195E+000	-1.14555E-004	12	...........	-327.56
	1365	683	1.52302E+000	8.02498E-001	0.00000E+000	1.52495E+000	-1.15455E-004	12	...........	-327.56
	1372	686.5	1.51603E+000	7.89933E-001	0.00000E+000	1.51795E+000	-1.19455E-004	12	...........	-327.56
	1379	690	1.50901E+000	7.74209E-001	0.00000E+000	1.51095E+000	-1.15355E-004	12	...........	-327.56
	1386	693.5	1.50199E+000	7.60542E-001	0.00000E+000	1.50395E+000	-1.14555E-004	12	...........	-327.56
	1393	697	1.49508E+000	7.43831E-001	0.00000E+000	1.49695E+000	-1.11355E-004	12	...........	-327.56
	1400	700.5	1.48807E+000	7.30668E-001	0.00000E+000	1.48995E+000	-1.14088E-004	12	...........	-327.56
	1407	704	1.48105E+000	7.19924E-001	0.00000E+000	1.48295E+000	-1.18855E-004	12	...........	-327.56
	1414	707.5	1.47403E+000	7.02402E-001	0.00000E+000	1.47595E+000	-1.13955E-004	12	...........	-327.56
	1421	711	1.46714E+000	6.87996E-001	0.00000E+000	1.46895E+000	-1.14521E-004	12	...........	-327.56
	1428	714.5	1.46013E+000	6.72880E-001	0.00000E+000	1.46195E+000	-1.18121E-004	12	...........	-327.56
	1435	718	1.45309E+000	6.57648E-001	0.00000E+000	1.45495E+000	-1.13921E-004	12	...........	-327.56
	1442	721.5	1.44616E+000	6.43216E-001	0.00000E+000	1.44795E+000	-1.15355E-004	12	...........	-327.56
	1449	725	1.43916E+000	6.30062E-001	0.00000E+000	1.44095E+000	-1.12355E-004	12	...........	-327.56
	1456	728.5	1.43219E+000	6.15865E-001	0.00000E+000	1.43395E+000	-1.16488E-004	12	...........	-327.56
	1463	732	1.42515E+000	5.99807E-001	0.00000E+000	1.42695E+000	-1.14721E-004	12	...........	-327.56
	1470	735.5	1.41824E+000	5.84941E-001	0.00000E+000	1.41995E+000	-1.09821E-004	12	...........	-327.56
	1477	739	1.41123E+000	5.71121E-001	0.00000E+000	1.41295E+000	-1.16188E-004	12	...........	-327.56
	1484	742.5	1.40422E+000	5.57362E-001	0.00000E+000	1.40595E+000	-1.18288E-004	12	...........	-327.56
	1491	746	1.39721E+000	5.41405E-001	0.00000E+000	1.39895E+000	-1.17355E-004	12	...........	-327.56
	1498	749.5	1.39031E+000	5.27578E-001	0.00000E+000	1.39195E+000	-1.16521E-004	12	...........	-327.56
	1505	753	1.38328E+000	5.13664E-001	0.00000E+000	1.38495E+000	-1.16055E-004	12	...........	-327.56
	1512	756.5	1.37627E+000	5.00504E-001	0.00000E+000	1.37795E+000	-1.13421E-004	12	...........	-327.56
	1519	760	1.36936E+000	4.85994E-001	0.00000E+000	1.37095E+000	-1.16421E-004	12	...........	-327.56
	1526	763.5	1.36235E+000	4.70735E-001	0.00000E+000	1.36395E+000	-1.15588E-004	12	...........	-327.56
	1533	767	1.35535E+000	4.56483E-001	0.00000E+000	1.35695E+000	-1.17188E-004	12	...........	-327.56
	1540	770.5	1.34831E+000	4.41842E-001	0.00000E+000	1.34995E+000	-1.14055E-004	12	...........	-327.56
	1547	774	1.34141E+000	4.27646E-001	0.00000E+000	1.34295E+000	-1.12955E-004	12	...........	-327.56
	1554	777.5	1.33439E+000	4.13177E-001	0.00000E+000	1.33595E+000	-1.15555E-004	12	...........	-327.56
	1561	781	1.32743E+000	4.00525E-001	0.00000E+000	1.32895E+000	-1.17955E-004	12	...........	-327.56
	1568	784.5	1.32040E+000	3.86364E-001	0.00000E+000	1.32195E+000	-1.18588E-004	12	...........	-327.56
	1575	788	1.31352E+000	3.73096E-001	0.00000E+000	1.31495E+000	-1.15221E-004	12	...........	-327.56
	1582	791.5	1.30647E+000	3.60395E-001	0.00000E+000	1.30795E+000	-1.13288E-004	12	...........	-327.56
	1589	795	1.29946E+000	3.47015E-001	0.00000E+000	1.30095E+000	-1.14188E-004	12	...........	-327.56
	1596	798.5	1.29252E+000	3.34388E-001	0.00000E+000	1.29395E+000	-1.13421E-004	12	...........	-327.56
	1603	802	1.28552E+000	3.21548E-001	0.00000E+000	1.28695E+000	-1.12721E-004	12	...........	-327.56
	1610	805.5	1.27852E+000	3.09175E-001	0.00000E+000	1.27995E+000	-1.17055E-004	12	...........	-327.56
	1617	809	1.27148E+000	2.96923E-001	0.00000E+000	1.27295E+000	-1.14588E-004	12	...........	-327.56
	1624	812.5	1.26460E+000	2.85174E-001	0.00000E+000	1.26595E+000	-1.15088E-004	12	...........	-327.56
	1631	816	1.25758E+000	2.73481E-001	0.00000E+000	1.25895E+000	-1.18521E-004	12	...........	-327.56
	1638	819.5	1.25056E+000	2.62075E-001	0.00000E+000	1.25195E+000	-1.17655E-004	12	...........	-327.56
	1645	823	1.24354E+000	2.50973E-001	0.00000E+000	1.24495E+000	-1.15321E-004	12	...........	-327.56
	1652	826.5	1.23665E+000	2.40293E-001	0.00000E+000	1.23795E+000	-1.13555E-004	12	...........	-327.56
	1659	830	1.22935E+000	2.29233E-001	0.00000E+000	1.23095E+000	-1.09388E-004	11	...........	-327.56
	1666	833.5	1.22234E+000	2.18875E-001	0.00000E+000	1.22395E+000	-1.14255E-004	11	...........	-327.56
	1673	837	1.21540E+000	2.08441E-001	0.00000E+000	1.21695E+000	-1.12688E-004	11	...........	-327.56
	1680	840.5	1.20844E+000	1.98003E-001	0.00000E+000	1.20995E+000	-1.13288E-004	11	...........	-327.56
	1687	844	1.20149E+000	1.87894E-001	0.00000E+000	1.20295E+000	-1.16388E-004	11	...........	-327.56
	1694	847.5	1.19441E+000	1.77940E-001	0.00000E+000	1.19595E+000	-1.12221E-004	11	...........	-327.56
	1701	851	1.18751E+000	1.68301E-001	0.00000E+000	1.18895E+000	-1.12188E-004	11	...........	-327.56
	1708	854.5	1.18053E+000	1.58872E-001	0.00000E+000	1.18195E+000	-1.13688E-004	11	...........	-327.56
	1715	858	1.17349E+000	1.49699E-001	0.00000E+000	1.17495E+000	-1.11688E-004	11	...........	-327.56
	1722	861.5	1.16644E+000	1.40786E-001	0.00000E+000	1.16795E+000	-1.17955E-004	11	...........	-327.56
	1729	865	1.15959E+000	1.32319E-001	0.00000E+000	1.16095E+000	-1.11855E-004	11	...........	-327.56
	1736	868.5	1.15257E+000	1.24121E-001	0.00000E+000	1.15395E+000	-1.14821E-004	11	...........	-327.56
	1743	872	1.14556E+000	1.16339E-001	0.00000E+000	1.14695E+000	-1.14221E-004	11	...........	-327.56
	1750	875.5	1.13862E+000	1.08688E-001	0.00000E+000	1.13995E+000	-1.19088E-004	11	...........	-327.56
	1757	879	1.13165E+000	1.01181E-001	0.00000E+000	1.13295E+000	-1.14121E-004	11	...........	-327.56
	1764	882.5	1.12472E+000	9.39025E-002	0.00000E+000	1.12595E+000	-1.15855E-004	11	...........	-327.56
	1771	886	1.11764E+000	8.66973E-002	0.00000E+000	1.11895E+000	-1.14588E-004	11	...........	-327.56
	1778	889.5	1.11074E+000	7.98788E-002	0.00000E+000	1.11195E+000	-1.16488E-004	11	...........	-327.56
	1785	893	1.10376E+000	7.34297E-002	0.00000E+000	1.10495E+000	-1.11888E-004	11	...........	-327.56
	1792	896.5	1.09671E+000	6.74444E-002	0.00000E+000	1.09795E+000	-1.13988E-004	11	...........	-327.56
	1799	900	1.08969E+000	6.18981E-002	0.00000E+000	1.09095E+000	-1.20721E-004	11	...........	-327.56
	1806	903.5	1.08279E+000	5.68150E-002	0.00000E+000	1.08395E+000	-1.15521E-004	11	...........	-327.56
	1813	907	1.07577E+000	5.20297E-002	0.00000E+000	1.07695E+000	-1.15088E-004	11	...........	-327.56
	1820	910.5	1.06878E+000	4.76156E-002	0.00000E+000	1.06995E+000	-1.15921E-004	11	...........	-327.56
	1827	914	1.06184E+000	4.34449E-002	0.00000E+000	1.06295E+000	-1.18521E-004	11	...........	-327.56
	1834	917.5	1.05485E+000	3.94896E-002	0.00000E+000	1.05595E+000	-1.17488E-004	11	...........	-327.56
	1841	921	1.04786E+000	3.57274E-002	0.00000E+000	1.04895E+000	-1.14321E-004	11	...........	-327.56
	1848	924.5	1.04079E+000	3.21686E-002	0.00000E+000	1.04195E+000	-1.14288E-004	11	...........	-327.56
	1855	928	1.03390E+000	2.89291E-002	0.00000E+000	1.03495E+000	-1.18688E-004	11	...........	-327.56
	1862	931.5	1.02687E+000	2.58720E-002	0.00000E+000	1.02795E+000	-1.16421E-004	11	...........	-327.56
	1869	935	1.01960E+000	2.29673E-002	0.00000E+000	1.02095E+000	-1.12421E-004	10	...........	-327.56
	1876	938.5	1.01269E+000	2.04066E-002	0.00000E+000	1.01395E+000	-1.17388E-004	10	...........	-327.56
	1883	942	1.00573E+000	1.79726E-002	0.00000E+000	1.00695E+000	-1.15221E-004	10	...........	-327.56
	1890	945.5	9.98737E-001	1.57232E-002	0.00000E+000	9.99950E-001	-1.15988E-004	10	...........	-327.56
	1897	949	9.91793E-001	1.37306E-002	0.00000E+000	9.92950E-001	-1.15088E-004	10	...........	-327.56
	1904	952.5	9.84817E-001	1.20197E-002	0.00000E+000	9.85950E-001	-1.15321E-004	10	...........	-327.56
	1911	956	9.77854E-001	1.06061E-002	0.00000E+000	9.78950E-001	-1.17421E-004	10	...........	-327.56
	1918	959.5	9.70807E-001	9.45636E-003	0.00000E+000	9.71950E-001	-1.17821E-004	10	...........	-327.56
	1925	963	9.63819E-001	8.42953E-003	0.00000E+000	9.64950E-001	-1.16955E-004	10	...........	-327.56
	1932	966.5	9.56899E-001	7.52029E-003	0.00000E+000	9.57950E-001	-1.16888E-004	10	...........	-327.56
	1939	970	9.49892E-001	6.78538E-003	0.00000E+000	9.50950E-001	-1.15355E-004	10	...........	-327.56
	1946	973.5	9.42856E-001	6.17743E-003	0.00000E+000	9.43950E-001	-1.16521E-004	10	...........	-327.56
	1953	977	9.35926E-001	5.62713E-003	0.00000E+000	9.36950E-001	-1.16955E-004	10	...........	-327.56
	1960	980.5	9.28945E-001	5.19178E-003	0.00000E+000	9.29950E-001	-1.18755E-004	10	...........	-327.56
	1967	984	9.21918E-001	4.89190E-003	0.00000E+000	9.22950E-001	-1.15055E-004	10	...........	-327.56
	1974	987.5	9.14993E-001	4.64507E-003	0.00000E+000	9.15950E-001	-1.15421E-004	10	...........	-327.56
	1981	991	9.07999E-001	4.48375E-003	0.00000E+000	9.08950E-001	-1.16621E-004	10	...........	-327.56
	1988	994.5	9.01013E-001	4.34627E-003	0.00000E+000	9.01950E-001	-1.18421E-004	10	...........	-327.56
	1995	998	8.93965E-001	4.25960E-003	0.00000E+000	8.94950E-001	-1.14255E-004	10	...........	-327.56
	2002	1001.5	8.86956E-001	4.18703E-003	0.00000E+000	8.87950E-001	-1.16921E-004	10	...........	-327.56
	2009	1005	8.80014E-001	4.13637E-003	0.00000E+000	8.80950E-001	-1.22055E-004	10	...........	-327.56
	2016	1008.5	8.73018E-001	4.08120E-003	0.00000E+000	8.73950E-001	-1.19321E-004	10	...........	-327.56
	2023	1012	8.65996E-001	4.01357E-003	0.00000E+000	8.66950E-001	-1.15988E-004	10	...........	-327.56
	2030	1015.5	8.59048E-001	3.94924E-003	0.00000E+000	8.59950E-001	-1.16688E-004	10	...........	-327.56
	2037	1019	8.52054E-001	3.90680E-003	0.00000E+000	8.52950E-001	-1.17655E-004	10	...........	-327.56
	2044	1022.5	8.45020E-001	3.87163E-003	0.00000E+000	8.45950E-001	-1.14688E-004	10	...........	-327.56
	2051	1026	8.37991E-001	3.83385E-003	0.00000E+000	8.38950E-001	-1.12388E-004	10	...........	-327.56
	2058	1029.5	8.31057E-001	3.79922E-003	0.00000E+000	8.31950E-001	-1.14421E-004	10	...........	-327.56
	2065	1033	8.24043E-001	3.76186E-003	0.00000E+000	8.24950E-001	-1.19055E-004	10	...........	-327.56
	2072	1036.5	8.17069E-001	3.72791E-003	0.00000E+000	8.17950E-001	-1.17821E-004	10	...........	-327.56
	2079	1040	8.10047E-001	3.70543E-003	0.00000E+000	8.10950E-001	-1.18021E-004	10	...........	-327.56
	2086	1043.5	8.03129E-001	3.67621E-003	0.00000E+000	8.03950E-001	-1.13821E-004	10	...........	-327.56
	2093	1047	7.96125E-001	3.67054E-003	0.00000E+000	7.96950E-001	-1.19188E-004	10	...........	-327.56
	2100	1050.5	7.89084E-001	3.64447E-003	0.00000E+000	7.89950E-001	-1.17621E-004	10	...........	-327.56
	2107	1054	7.82050E-001	3.61466E-003	0.00000E+000	7.82950E-001	-1.20521E-004	10	...........	-327.56
	2114	1057.5	7.75133E-001	3.64326E-003	0.00000E+000	7.75950E-001	-1.14921E-004	10	...........	-327.56
	2121	1061	7.68125E-001	3.61067E-003	0.00000E+000	7.68950E-001	-1.17621E-004	10	...........	-327.56
	2128	1064.5	7.61081E-001	3.54234E-003	0.00000E+000	7.61950E-001	-1.18188E-004	10	...........	-327.56
	2135	1068	7.54173E-001	3.49767E-003	0.00000E+000	7.54950E-001	-1.17121E-004	10	...........	-327.56
	2142	1071.5	7.47155E-001	3.47357E-003	0.00000E+000	7.47950E-001	-1.17355E-004	10	...........	-327.56
	2149	1075	7.40140E-001	3.39323E-003	0.00000E+000	7.40950E-001	-1.16088E-004	10	...........	-327.56
	2156	1078.5	7.33111E-001	3.40684E-003	0.00000E+000	7.33950E-001	-1.17255E-004	10	...........	-327.56
	2163	1082	7.26197E-001	3.33999E-003	0.00000E+000	7.26950E-001	-1.14555E-004	10	...........	-327.56
	2170	1085.5	7.19172E-001	3.30991E-003	0.00000E+000	7.19950E-001	-1.13621E-004	10	...........	-327.56
	2177	1089	7.12192E-001	3.27774E-003	0.00000E+000	7.12950E-001	-1.18721E-004	10	...........	-327.56
	2184	1092.5	7.05145E-001	3.19184E-003	0.00000E+000	7.05950E-001	-1.17455E-004	10	...........	-327.56
	2191	1096	6.98240E-001	3.10075E-003	0.00000E+000	6.98950E-001	-1.12288E-004	10	...........	-327.56
	2198	1099.5	6.91190E-001	3.03423E-003	0.00000E+000	6.91950E-001	-1.17355E-004	10	...........	-327.56
	2205	1103	6.84200E-001	2.94101E-003	0.00000E+000	6.84950E-001	-1.14421E-004	10	...........	-327.56
	2212	1106.5	6.77261E-001	2.84001E-003	0.00000E+000	6.77950E-001	-1.16988E-004	10	...........	-327.56
	2219	1110	6.70285E-001	2.78254E-003	0.00000E+000	6.70950E-001	-1.18688E-004	10	...........	-327.56
	2226	1113.5	6.63232E-001	2.63639E-003	0.00000E+000	6.63950E-001	-1.16321E-004	10	...........	-327.56
	2233	1117	6.56214E-001	2.52991E-003	0.00000E+000	6.56950E-001	-1.18655E-004	10	...........	-327.56
	2240	1120.5	6.49026E-001	2.33916E-003	0.00000E+000	6.49950E-001	-1.12455E-004	9	...........	-327.56
	2247	1124	6.42010E-001	2.20980E-003	0.00000E+000	6.42950E-001	-1.13421E-004	9	...........	-327.56
	2254	1127.5	6.35051E-001	2.11584E-003	0.00000E+000	6.35950E-001	-1.18355E-004	9	...........	-327.56
	2261	1131	6.27953E-001	2.16579E-003	0.00000E+000	6.28950E-001	-1.10788E-004	9	...........	-327.56
	2268	1134.5	6.21084E-001	2.00738E-003	0.00000E+000	6.21950E-001	-1.10921E-004	9	...........	-327.56
	2275	1138	6.14084E-001	1.78799E-003	0.00000E+000	6.14950E-001	-1.13588E-004	9	...........	-327.56
	2282	1141.5	6.07091E-001	1.60308E-003	0.00000E+000	6.07950E-001	-1.11788E-004	9	...........	-327.56
	2289	1145	6.00192E-001	1.42864E-003	0.00000E+000	6.00950E-001	-1.14955E-004	9	...........	-327.56
	2296	1148.5	5.93183E-001	1.29366E-003	0.00000E+000	5.93950E-001	-1.13155E-004	9	...........	-327.56
	2303	1152	5.86163E-001	1.11739E-003	0.00000E+000	5.86950E-001	-1.13221E-004	9	...........	-327.56
	2310	1155.5	5.79158E-001	9.64044E-004	0.00000E+000	5.79950E-001	-1.15621E-004	9	...........	-327.56
	2317	1159	5.72263E-001	7.71725E-004	0.00000E+000	5.72950E-001	-1.16721E-004	9	...........	-327.56
	2324	1162.5	5.65291E-001	5.33489E-004	0.00000E+000	5.65950E-001	-1.17688E-004	9	...........	-327.56
	2331	1166	5.58330E-001	2.82686E-004	0.00000E+000	5.58950E-001	-1.14821E-004	9	...........	-327.56
	2338	1169.5	5.51226E-001	3.68211E-005	0.00000E+000	5.51950E-001	-1.17155E-004	8	...........	-327.56
	2345	1173	5.44626E-001	-1.87211E-004	0.00000E+000	5.44950E-001	-1.07988E-004	8	...........	-327.56
	2352	1176.5	5.37416E-001	-4.43507E-004	0.00000E+000	5.37950E-001	-1.15721E-004	9	...........	-327.56
	2359	1180	5.30414E-001	-6.97040E-004	0.00000E+000	5.30950E-001	-1.15755E-004	9	...........	-327.56
	2366	1183.5	5.23518E-001	-9.65695E-004	0.00000E+000	5.23950E-001	-1.16388E-004	9	...........	-327.56
	2373	1187	5.16555E-001	-1.26338E-003	0.00000E+000	5.16950E-001	-1.14955E-004	9	...........	-327.56
	2380	1190.5	5.09586E-001	-1.62088E-003	0.00000E+000	5.09950E-001	-1.13621E-004	9	...........	-327.56
	2387	1194	5.02628E-001	-1.96145E-003	0.00000E+000	5.02950E-001	-1.13488E-004	9	...........	-327.56
	2394	1197.5	4.95775E-001	-2.31292E-003	0.00000E+000	4.95950E-001	-1.05055E-004	9	...........	-327.56
	2401	1201	4.88786E-001	-2.64943E-003	0.00000E+000	4.88950E-001	-1.03055E-004	9	...........	-327.56
	2408	1204.5	4.81516E-001	-3.06832E-003	0.00000E+000	4.81950E-001	-1.16755E-004	10	...........	-327.56
	2415	1208	4.74423E-001	-3.43649E-003	0.00000E+000	4.74950E-001	-1.15055E-004	10	...........	-327.56
	2422	1211.5	4.67530E-001	-3.77685E-003	0.00000E+000	4.67950E-001	-1.15521E-004	10	...........	-327.56
	2429	1215	4.60520E-001	-4.13261E-003	0.00000E+000	4.60950E-001	-1.12521E-004	10	...........	-327.56
	2436	1218.5	4.53492E-001	-4.53864E-003	0.00000E+000	4.53950E-001	-1.16588E-004	10	...........	-327.56
	2443	1222	4.46589E-001	-4.93029E-003	0.00000E+000	4.46950E-001	-1.12288E-004	10	...........	-327.56
	2450	1225.5	4.39560E-001	-5.33582E-003	0.00000E+000	4.39950E-001	-1.17388E-004	10	...........	-327.56
	2457	1229	4.32533E-001	-5.76631E-003	0.00000E+000	4.32950E-001	-1.13388E-004	10	...........	-327.56
	2464	1232.5	4.25547E-001	-6.19903E-003	0.00000E+000	4.25950E-001	-1.16421E-004	10	...........	-327.56
	2471	1236	4.18595E-001	-6.59930E-003	0.00000E+000	4.18950E-001	-1.20188E-004	10	...........	-327.56
	2478	1239.5	4.11584E-001	-6.98610E-003	0.00000E+000	4.11950E-001	-1.15388E-004	10	...........	-327.56
	2485	1243	4.04595E-001	-7.33899E-003	0.00000E+000	4.04950E-001	-1.16921E-004	10	...........	-327.56
	2492	1246.5	3.97509E-001	-7.65940E-003	0.00000E+000	3.97950E-001	-1.20921E-004	10	...........	-327.56
	2499	1250	3.90630E-001	-8.01529E-003	0.00000E+000	3.90950E-001	-1.15821E-004	10	...........	-327.56
	2506	1253.5	3.83579E-001	-8.36674E-003	0.00000E+000	3.83950E-001	-1.13188E-004	10	...........	-327.56
	2513	1257	3.76578E-001	-8.73455E-003	0.00000E+000	3.76950E-001	-1.15821E-004	10	...........	-327.56
	2520	1260.5	3.69644E-001	-9.10761E-003	0.00000E+000	3.69950E-001	-1.15088E-004	10	...........	-327.56
	2527	1264	3.62647E-001	-9.45281E-003	0.00000E+000	3.62950E-001	-1.16655E-004	10	...........	-327.56
	2534	1267.5	3.55625E-001	-9.76072E-003	0.00000E+000	3.55950E-001	-1.14955E-004	10	...........	-327.56
	2541	1271	3.48690E-001	-1.01235E-002	0.00000E+000	3.48950E-001	-1.16755E-004	10	...........	-327.56
	2548	1274.5	3.41687E-001	-1.04511E-002	0.00000E+000	3.41950E-001	-1.21488E-004	10	...........	-327.56
	2555	1278	3.34672E-001	-1.07774E-002	0.00000E+000	3.34950E-001	-1.15488E-004	10	...........	-327.56
	2562	1281.5	3.27634E-001	-1.10943E-002	0.00000E+000	3.27950E-001	-1.14588E-004	10	...........	-327.56
	2569	1285	3.20620E-001	-1.14381E-002	0.00000E+000	3.20950E-001	-1.16488E-004	10	...........	-327.56
	2576	1288.5	3.13718E-001	-1.17627E-002	0.00000E+000	3.13950E-001	-1.19588E-004	10	...........	-327.56
	2583	1292	3.06722E-001	-1.20706E-002	0.00000E+000	3.06950E-001	-1.16288E-004	10	...........	-327.56
	2590	1295.5	2.99740E-001	-1.23879E-002	0.00000E+000	2.99950E-001	-1.16421E-004	10	...........	-327.56
	2597	1299	2.92787E-001	-1.27068E-002	0.00000E+000	2.92950E-001	-1.19288E-004	10	...........	-327.56
	2604	1302.5	2.85809E-001	-1.30271E-002	0.00000E+000	2.85950E-001	-1.14188E-004	10	...........	-327.56
	2611	1306	2.78761E-001	-1.33226E-002	0.00000E+000	2.78950E-001	-1.14055E-004	10	...........	-327.56
[...]
	8206	4103.5	7.15102E-001	1.67481E-002	0.00000E+000	7.16000E-001	-1.18921E-004	10	...........	-327.56
	8211	4106	7.20038E-001	1.65325E-002	0.00000E+000	7.21000E-001	-1.19421E-004	10	...........	-327.56
	8216	4108.5	7.25061E-001	1.63383E-002	0.00000E+000	7.26000E-001	-1.16988E-004	10	...........	-327.56
	8221	4111	7.29955E-001	1.60410E-002	0.00000E+000	7.31000E-001	-1.17821E-004	10	...........	-327.56
	8226	4113.5	7.34999E-001	1.57973E-002	0.00000E+000	7.36000E-001	-1.15621E-004	10	...........	-327.56
	8231	4116	7.40023E-001	1.56542E-002	0.00000E+000	7.41000E-001	-1.17355E-004	10	...........	-327.56
	8236	4118.5	7.45042E-001	1.54191E-002	0.00000E+000	7.46000E-001	-1.17188E-004	10	...........	-327.56
	8241	4121	7.50046E-001	1.51504E-002	0.00000E+000	7.51000E-001	-1.16188E-004	10	...........	-327.56
	8246	4123.5	7.55057E-001	1.49828E-002	0.00000E+000	7.56000E-001	-1.15988E-004	10	...........	-327.56
	8251	4126	7.59975E-001	1.48462E-002	0.00000E+000	7.61000E-001	-1.18421E-004	10	...........	-327.56
	8256	4128.5	7.65025E-001	1.46030E-002	0.00000E+000	7.66000E-001	-1.16888E-004	10	...........	-327.56
	8261	4131	7.70049E-001	1.43671E-002	0.00000E+000	7.71000E-001	-1.17855E-004	10	...........	-327.56
	8266	4133.5	7.75058E-001	1.42543E-002	0.00000E+000	7.76000E-001	-1.13388E-004	10	...........	-327.56
	8271	4136	7.80034E-001	1.40981E-002	0.00000E+000	7.81000E-001	-1.19521E-004	10	...........	-327.56
	8276	4138.5	7.84993E-001	1.39088E-002	0.00000E+000	7.86000E-001	-1.19388E-004	10	...........	-327.56
	8281	4141	7.89979E-001	1.37384E-002	0.00000E+000	7.91000E-001	-1.19455E-004	10	...........	-327.56
	8286	4143.5	7.95082E-001	1.35346E-002	0.00000E+000	7.96000E-001	-1.21988E-004	10	...........	-327.56
	8291	4146	8.00047E-001	1.33890E-002	0.00000E+000	8.01000E-001	-1.20055E-004	10	...........	-327.56
	8296	4148.5	8.05072E-001	1.32042E-002	0.00000E+000	8.06000E-001	-1.16221E-004	10	...........	-327.56
	8301	4151	8.09970E-001	1.30611E-002	0.00000E+000	8.11000E-001	-1.15488E-004	10	...........	-327.56
	8306	4153.5	8.14995E-001	1.29258E-002	0.00000E+000	8.16000E-001	-1.15721E-004	10	...........	-327.56
	8311	4156	8.19970E-001	1.27721E-002	0.00000E+000	8.21000E-001	-1.16488E-004	10	...........	-327.56
	8316	4158.5	8.25010E-001	1.26002E-002	0.00000E+000	8.26000E-001	-1.20355E-004	10	...........	-327.56
	8321	4161	8.30006E-001	1.24967E-002	0.00000E+000	8.31000E-001	-1.17588E-004	10	...........	-327.56
	8326	4163.5	8.35003E-001	1.23441E-002	0.00000E+000	8.36000E-001	-1.19155E-004	10	...........	-327.56
	8331	4166	8.39970E-001	1.21970E-002	0.00000E+000	8.41000E-001	-1.21588E-004	10	...........	-327.56
	8336	4168.5	8.44967E-001	1.20612E-002	0.00000E+000	8.46000E-001	-1.18088E-004	10	...........	-327.56
	8341	4171	8.50004E-001	1.19253E-002	0.00000E+000	8.51000E-001	-1.14855E-004	10	...........	-327.56
	8346	4173.5	8.55019E-001	1.17562E-002	0.00000E+000	8.56000E-001	-1.15621E-004	10	...........	-327.56
	8351	4176	8.59918E-001	1.16366E-002	0.00000E+000	8.61000E-001	-1.20688E-004	10	...........	-327.56
	8356	4178.5	8.64955E-001	1.14866E-002	0.00000E+000	8.66000E-001	-1.20721E-004	10	...........	-327.56
	8361	4181	8.69948E-001	1.13844E-002	0.00000E+000	8.71000E-001	-1.16621E-004	10	...........	-327.56
	8366	4183.5	8.74998E-001	1.12281E-002	0.00000E+000	8.76000E-001	-1.17121E-004	10	...........	-327.56
	8371	4186	8.79986E-001	1.11304E-002	0.00000E+000	8.81000E-001	-1.15488E-004	10	...........	-327.56
	8376	4188.5	8.84903E-001	1.09951E-002	0.00000E+000	8.86000E-001	-1.20555E-004	10	...........	-327.56
	8381	4191	8.89918E-001	1.08306E-002	0.00000E+000	8.91000E-001	-1.19688E-004	10	...........	-327.56
	8386	4193.5	8.94944E-001	1.07489E-002	0.00000E+000	8.96000E-001	-1.15621E-004	10	...........	-327.56
	8391	4196	8.99980E-001	1.06296E-002	0.00000E+000	9.01000E-001	-1.15221E-004	10	...........	-327.56
	8396	4198.5	9.05001E-001	1.05137E-002	0.00000E+000	9.06000E-001	-1.20021E-004	10	...........	-327.56
	8401	4201	9.09873E-001	1.04494E-002	0.00000E+000	9.11000E-001	-1.23588E-004	10	...........	-327.56
	8406	4203.5	9.14956E-001	1.03428E-002	0.00000E+000	9.16000E-001	-1.17988E-004	10	...........	-327.56
	8411	4206	9.19942E-001	1.02749E-002	0.00000E+000	9.21000E-001	-1.20488E-004	10	...........	-327.56
	8416	4208.5	9.24927E-001	1.01883E-002	0.00000E+000	9.26000E-001	-1.17288E-004	10	...........	-327.56
	8421	4211	9.29937E-001	1.01456E-002	0.00000E+000	9.31000E-001	-1.15988E-004	10	...........	-327.56
	8426	4213.5	9.34827E-001	1.00796E-002	0.00000E+000	9.36000E-001	-1.16921E-004	10	...........	-327.56
	8431	4216	9.39864E-001	1.01067E-002	0.00000E+000	9.41000E-001	-1.18121E-004	10	...........	-327.56
	8436	4218.5	9.44874E-001	1.01029E-002	0.00000E+000	9.46000E-001	-1.18355E-004	10	...........	-327.56
	8441	4221	9.49898E-001	1.01559E-002	0.00000E+000	9.51000E-001	-1.14088E-004	10	...........	-327.56
	8446	4223.5	9.54935E-001	1.01927E-002	0.00000E+000	9.56000E-001	-1.19121E-004	10	...........	-327.56
	8451	4226	9.59912E-001	1.03691E-002	0.00000E+000	9.61000E-001	-1.15921E-004	10	...........	-327.56
	8456	4228.5	9.64830E-001	1.05501E-002	0.00000E+000	9.66000E-001	-1.19288E-004	10	...........	-327.56
	8461	4231	9.69869E-001	1.08222E-002	0.00000E+000	9.71000E-001	-1.17821E-004	10	...........	-327.56
	8466	4233.5	9.74861E-001	1.11580E-002	0.00000E+000	9.76000E-001	-1.18755E-004	10	...........	-327.56
	8471	4236	9.79879E-001	1.15705E-002	0.00000E+000	9.81000E-001	-1.16521E-004	10	...........	-327.56
	8476	4238.5	9.84871E-001	1.19686E-002	0.00000E+000	9.86000E-001	-1.20521E-004	10	...........	-327.56
	8481	4241	9.89805E-001	1.24633E-002	0.00000E+000	9.91000E-001	-1.19855E-004	10	...........	-327.56
	8486	4243.5	9.94796E-001	1.30666E-002	0.00000E+000	9.96000E-001	-1.17321E-004	10	...........	-327.56
	8491	4246	9.99886E-001	1.37203E-002	0.00000E+000	1.00100E+000	-1.19388E-004	10	...........	-327.56
	8496	4248.5	1.00481E+000	1.44889E-002	0.00000E+000	1.00600E+000	-1.18088E-004	10	...........	-327.56
	8501	4251	1.00982E+000	1.53466E-002	0.00000E+000	1.01100E+000	-1.19955E-004	10	...........	-327.56
	8506	4253.5	1.01474E+000	1.64036E-002	0.00000E+000	1.01600E+000	-1.17388E-004	10	...........	-327.56
	8511	4256	1.01974E+000	1.75813E-002	0.00000E+000	1.02100E+000	-1.17621E-004	10	...........	-327.56
	8516	4258.5	1.02471E+000	1.88240E-002	0.00000E+000	1.02600E+000	-1.16121E-004	10	...........	-327.56
	8521	4261	1.02971E+000	2.02370E-002	0.00000E+000	1.03100E+000	-1.19355E-004	10	...........	-327.56
	8526	4263.5	1.03470E+000	2.17290E-002	0.00000E+000	1.03600E+000	-1.14955E-004	10	...........	-327.56
	8531	4266	1.03958E+000	2.33270E-002	0.00000E+000	1.04100E+000	-1.16188E-004	10	...........	-327.56
	8536	4268.5	1.04466E+000	2.50561E-002	0.00000E+000	1.04600E+000	-1.15288E-004	10	...........	-327.56
	8541	4271	1.04957E+000	2.68822E-002	0.00000E+000	1.05100E+000	-1.15521E-004	10	...........	-327.56
	8546	4273.5	1.05492E+000	2.89016E-002	0.00000E+000	1.05600E+000	-1.17655E-004	11	...........	-327.56
	8551	4276	1.05992E+000	3.09370E-002	0.00000E+000	1.06100E+000	-1.14021E-004	11	...........	-327.56
	8556	4278.5	1.06484E+000	3.30921E-002	0.00000E+000	1.06600E+000	-1.19288E-004	11	...........	-327.56
	8561	4281	1.06985E+000	3.52733E-002	0.00000E+000	1.07100E+000	-1.20255E-004	11	...........	-327.56
	8566	4283.5	1.07482E+000	3.75530E-002	0.00000E+000	1.07600E+000	-1.19755E-004	11	...........	-327.56
	8571	4286	1.07990E+000	4.00137E-002	0.00000E+000	1.08100E+000	-1.21688E-004	11	...........	-327.56
	8576	4288.5	1.08489E+000	4.24796E-002	0.00000E+000	1.08600E+000	-1.18255E-004	11	...........	-327.56
	8581	4291	1.08977E+000	4.50859E-002	0.00000E+000	1.09100E+000	-1.19221E-004	11	...........	-327.56
	8586	4293.5	1.09479E+000	4.77654E-002	0.00000E+000	1.09600E+000	-1.17455E-004	11	...........	-327.56
	8591	4296	1.09982E+000	5.05931E-002	0.00000E+000	1.10100E+000	-1.16488E-004	11	...........	-327.56
	8596	4298.5	1.10483E+000	5.34484E-002	0.00000E+000	1.10600E+000	-1.18555E-004	11	...........	-327.56
	8601	4301	1.10984E+000	5.64219E-002	0.00000E+000	1.11100E+000	-1.16855E-004	11	...........	-327.56
	8606	4303.5	1.11473E+000	5.95461E-002	0.00000E+000	1.11600E+000	-1.19788E-004	11	...........	-327.56
	8611	4306	1.11984E+000	6.28465E-002	0.00000E+000	1.12100E+000	-1.17221E-004	11	...........	-327.56
	8616	4308.5	1.12476E+000	6.60774E-002	0.00000E+000	1.12600E+000	-1.14321E-004	11	...........	-327.56
	8621	4311	1.12975E+000	6.95345E-002	0.00000E+000	1.13100E+000	-1.18988E-004	11	...........	-327.56
	8626	4313.5	1.13477E+000	7.29555E-002	0.00000E+000	1.13600E+000	-1.17621E-004	11	...........	-327.56
	8631	4316	1.13964E+000	7.63969E-002	0.00000E+000	1.14100E+000	-1.20555E-004	11	...........	-327.56
	8636	4318.5	1.14467E+000	8.00267E-002	0.00000E+000	1.14600E+000	-1.18388E-004	11	...........	-327.56
	8641	4321	1.14969E+000	8.38642E-002	0.00000E+000	1.15100E+000	-1.20221E-004	11	...........	-327.56
	8646	4323.5	1.15470E+000	8.78209E-002	0.00000E+000	1.15600E+000	-1.14855E-004	11	...........	-327.56
	8651	4326	1.15973E+000	9.19675E-002	0.00000E+000	1.16100E+000	-1.18488E-004	11	...........	-327.56
	8656	4328.5	1.16469E+000	9.61711E-002	0.00000E+000	1.16600E+000	-1.16555E-004	11	...........	-327.56
	8661	4331	1.16960E+000	1.00617E-001	0.00000E+000	1.17100E+000	-1.18688E-004	11	...........	-327.56
	8666	4333.5	1.17464E+000	1.05197E-001	0.00000E+000	1.17600E+000	-1.20355E-004	11	...........	-327.56
	8671	4336	1.17963E+000	1.09946E-001	0.00000E+000	1.18100E+000	-1.15555E-004	11	...........	-327.56
	8676	4338.5	1.18465E+000	1.14943E-001	0.00000E+000	1.18600E+000	-1.15621E-004	11	...........	-327.56
	8681	4341	1.18963E+000	1.20136E-001	0.00000E+000	1.19100E+000	-1.24155E-004	11	...........	-327.56
	8686	4343.5	1.19458E+000	1.25620E-001	0.00000E+000	1.19600E+000	-1.20121E-004	11	...........	-327.56
	8691	4346	1.19956E+000	1.31226E-001	0.00000E+000	1.20100E+000	-1.17455E-004	11	...........	-327.56
	8696	4348.5	1.20464E+000	1.37103E-001	0.00000E+000	1.20600E+000	-1.20755E-004	11	...........	-327.56
	8701	4351	1.20958E+000	1.43171E-001	0.00000E+000	1.21100E+000	-1.20221E-004	11	...........	-327.56
	8706	4353.5	1.21461E+000	1.49423E-001	0.00000E+000	1.21600E+000	-1.19688E-004	11	...........	-327.56
	8711	4356	1.21951E+000	1.56227E-001	0.00000E+000	1.22100E+000	-1.16588E-004	11	...........	-327.56
	8716	4358.5	1.22450E+000	1.63356E-001	0.00000E+000	1.22600E+000	-1.19288E-004	11	...........	-327.56
	8721	4361	1.22951E+000	1.70584E-001	0.00000E+000	1.23100E+000	-1.14121E-004	11	...........	-327.56
	8726	4363.5	1.23452E+000	1.77949E-001	0.00000E+000	1.23600E+000	-1.20521E-004	11	...........	-327.56
	8731	4366	1.23948E+000	1.85630E-001	0.00000E+000	1.24100E+000	-1.17155E-004	11	...........	-327.56
	8736	4368.5	1.24440E+000	1.93254E-001	0.00000E+000	1.24600E+000	-1.16555E-004	11	...........	-327.56
	8741	4371	1.24950E+000	2.01928E-001	0.00000E+000	1.25100E+000	-1.18221E-004	11	...........	-327.56
	8746	4373.5	1.25443E+000	2.10237E-001	0.00000E+000	1.25600E+000	-1.16321E-004	11	...........	-327.56
	8751	4376	1.25944E+000	2.19216E-001	0.00000E+000	1.26100E+000	-1.14521E-004	11	...........	-327.56
	8756	4378.5	1.26445E+000	2.28564E-001	0.00000E+000	1.26600E+000	-1.15221E-004	11	...........	-327.56
	8761	4381	1.26933E+000	2.38969E-001	0.00000E+000	1.27100E+000	-1.14755E-004	11	...........	-327.56
	8766	4383.5	1.27431E+000	2.48607E-001	0.00000E+000	1.27600E+000	-1.10921E-004	11	...........	-327.56
	8771	4386	1.27935E+000	2.59012E-001	0.00000E+000	1.28100E+000	-1.13888E-004	11	...........	-327.56
	8776	4388.5	1.28434E+000	2.68884E-001	0.00000E+000	1.28600E+000	-1.17088E-004	11	...........	-327.56
	8781	4391	1.28962E+000	2.80121E-001	0.00000E+000	1.29100E+000	-1.20121E-004	12	...........	-327.56
	8786	4393.5	1.29452E+000	2.91056E-001	0.00000E+000	1.29600E+000	-1.21555E-004	12	...........	-327.56
	8791	4396	1.29953E+000	3.02563E-001	0.00000E+000	1.30100E+000	-1.19088E-004	12	...........	-327.56
	8796	4398.5	1.30454E+000	3.15780E-001	0.00000E+000	1.30600E+000	-1.17155E-004	12	...........	-327.56
	8801	4401	1.30955E+000	3.28090E-001	0.00000E+000	1.31100E+000	-1.18055E-004	12	...........	-327.56
	8806	4403.5	1.31459E+000	3.39871E-001	0.00000E+000	1.31600E+000	-1.18188E-004	12	...........	-327.56
	8811	4406	1.31947E+000	3.53046E-001	0.00000E+000	1.32100E+000	-1.21288E-004	12	...........	-327.56
	8816	4408.5	1.32450E+000	3.65631E-001	0.00000E+000	1.32600E+000	-1.18555E-004	12	...........	-327.56
	8821	4411	1.32953E+000	3.75772E-001	0.00000E+000	1.33100E+000	-1.18888E-004	12	...........	-327.56
	8826	4413.5	1.33446E+000	3.87932E-001	0.00000E+000	1.33600E+000	-1.20555E-004	12	...........	-327.56
	8831	4416	1.33947E+000	4.01056E-001	0.00000E+000	1.34100E+000	-1.17721E-004	12	...........	-327.56
	8836	4418.5	1.34437E+000	4.13161E-001	0.00000E+000	1.34600E+000	-1.19355E-004	12	...........	-327.56
	8841	4421	1.34939E+000	4.25530E-001	0.00000E+000	1.35100E+000	-1.17021E-004	12	...........	-327.56
	8846	4423.5	1.35438E+000	4.38575E-001	0.00000E+000	1.35600E+000	-1.19021E-004	12	...........	-327.56
	8851	4426	1.35942E+000	4.49740E-001	0.00000E+000	1.36100E+000	-1.17655E-004	12	...........	-327.56
	8856	4428.5	1.36442E+000	4.60900E-001	0.00000E+000	1.36600E+000	-1.17388E-004	12	...........	-327.56
	8861	4431	1.36940E+000	4.70808E-001	0.00000E+000	1.37100E+000	-1.15688E-004	12	...........	-327.56
	8866	4433.5	1.37434E+000	4.82891E-001	0.00000E+000	1.37600E+000	-1.18155E-004	12	...........	-327.56
	8871	4436	1.37936E+000	4.93280E-001	0.00000E+000	1.38100E+000	-1.17588E-004	12	...........	-327.56
	8876	4438.5	1.38435E+000	5.04765E-001	0.00000E+000	1.38600E+000	-1.15688E-004	12	...........	-327.56
	8881	4441	1.38937E+000	5.15504E-001	0.00000E+000	1.39100E+000	-1.17321E-004	12	...........	-327.56
	8886	4443.5	1.39433E+000	5.27576E-001	0.00000E+000	1.39600E+000	-1.16621E-004	12	...........	-327.56
	8891	4446	1.39928E+000	5.37257E-001	0.00000E+000	1.40100E+000	-1.19421E-004	12	...........	-327.56
	8896	4448.5	1.40427E+000	5.49932E-001	0.00000E+000	1.40600E+000	-1.16721E-004	12	...........	-327.56
	8901	4451	1.40929E+000	5.62259E-001	0.00000E+000	1.41100E+000	-1.18988E-004	12	...........	-327.56
	8906	4453.5	1.41432E+000	5.71397E-001	0.00000E+000	1.41600E+000	-1.20188E-004	12	...........	-327.56
	8911	4456	1.41930E+000	5.84422E-001	0.00000E+000	1.42100E+000	-1.18455E-004	12	...........	-327.56
	8916	4458.5	1.42423E+000	5.95070E-001	0.00000E+000	1.42600E+000	-1.18988E-004	12	...........	-327.56
	8921	4461	1.42923E+000	6.05825E-001	0.00000E+000	1.43100E+000	-1.18555E-004	12	...........	-327.56
	8926	4463.5	1.43422E+000	6.15125E-001	0.00000E+000	1.43600E+000	-1.14388E-004	12	...........	-327.56
	8931	4466	1.43924E+000	6.26662E-001	0.00000E+000	1.44100E+000	-1.17021E-004	12	...........	-327.56
	8936	4468.5	1.44422E+000	6.37105E-001	0.00000E+000	1.44600E+000	-1.20888E-004	12	...........	-327.56
	8941	4471	1.44915E+000	6.48419E-001	0.00000E+000	1.45100E+000	-1.15021E-004	12	...........	-327.56
	8946	4473.5	1.45420E+000	6.58437E-001	0.00000E+000	1.45600E+000	-1.15721E-004	12	...........	-327.56
	8951	4476	1.45916E+000	6.70187E-001	0.00000E+000	1.46100E+000	-1.15688E-004	12	...........	-327.56
	8956	4478.5	1.46421E+000	6.79215E-001	0.00000E+000	1.46600E+000	-1.17355E-004	12	...........	-327.56
	8961	4481	1.46922E+000	6.91306E-001	0.00000E+000	1.47100E+000	-1.18388E-004	12	...........	-327.56
	8966	4483.5	1.47409E+000	7.01835E-001	0.00000E+000	1.47600E+000	-1.17721E-004	12	...........	-327.56
	8971	4486	1.47910E+000	7.16459E-001	0.00000E+000	1.48100E+000	-1.15688E-004	12	...........	-327.56
	8976	4488.5	1.48410E+000	7.24372E-001	0.00000E+000	1.48600E+000	-1.22455E-004	12	...........	-327.56
	8981	4491	1.48911E+000	7.34906E-001	0.00000E+000	1.49100E+000	-1.18021E-004	12	...........	-327.56
	8986	4493.5	1.49414E+000	7.42644E-001	0.00000E+000	1.49600E+000	-1.20355E-004	12	...........	-327.56
	8991	4496	1.49910E+000	7.55740E-001	0.00000E+000	1.50100E+000	-1.22055E-004	12	...........	-327.56
	8996	4498.5	1.50403E+000	7.67322E-001	0.00000E+000	1.50600E+000	-1.17588E-004	12	...........	-327.56
	9001	4501	1.50905E+000	7.76460E-001	0.00000E+000	1.51100E+000	-1.17588E-004	12	...........	-327.56
	9006	4503.5	1.51408E+000	7.86465E-001	0.00000E+000	1.51600E+000	-1.17621E-004	12	...........	-327.56
	9011	4506	1.51907E+000	7.97100E-001	0.00000E+000	1.52100E+000	-1.18488E-004	12	...........	-327.56
	9016	4508.5	1.52396E+000	8.03916E-001	0.00000E+000	1.52600E+000	-1.18321E-004	12	...........	-327.56
	9021	4511	1.52900E+000	8.16273E-001	0.00000E+000	1.53100E+000	-1.20788E-004	12	...........	-327.56
	9026	4513.5	1.53398E+000	8.26616E-001	0.00000E+000	1.53600E+000	-1.20155E-004	12	...........	-327.56
	9031	4516	1.53902E+000	8.34879E-001	0.00000E+000	1.54100E+000	-1.18455E-004	12	...........	-327.56
	9036	4518.5	1.54398E+000	8.46862E-001	0.00000E+000	1.54600E+000	-1.21788E-004	12	...........	-327.56
	9041	4521	1.54893E+000	8.55448E-001	0.00000E+000	1.55100E+000	-1.18521E-004	12	...........	-327.56
	9046	4523.5	1.55391E+000	8.65912E-001	0.00000E+000	1.55600E+000	-1.16821E-004	12	...........	-327.56
	9051	4526	1.55891E+000	8.83211E-001	0.00000E+000	1.56100E+000	-1.17188E-004	12	...........	-327.56
	9056	4528.5	1.56394E+000	8.89550E-001	0.00000E+000	1.56600E+000	-1.16755E-004	12	...........	-327.56
	9061	4531	1.56895E+000	9.01807E-001	0.00000E+000	1.57100E+000	-1.25588E-004	12	...........	-327.56
	9066	4533.5	1.57390E+000	9.09209E-001	0.00000E+000	1.57600E+000	-1.18555E-004	12	...........	-327.56
	9071	4536	1.57886E+000	9.17964E-001	0.00000E+000	1.58100E+000	-1.20055E-004	12	...........	-327.56
	9076	4538.5	1.58392E+000	9.30465E-001	0.00000E+000	1.58600E+000	-1.21021E-004	12	...........	-327.56
	9081	4541	1.58889E+000	9.36067E-001	0.00000E+000	1.59100E+000	-1.16855E-004	12	...........	-327.56
	9086	4543.5	1.59390E+000	9.43851E-001	0.00000E+000	1.59600E+000	-1.17121E-004	12	...........	-327.56
	9091	4546	1.59890E+000	9.52877E-001	0.00000E+000	1.60100E+000	-1.15655E-004	12	...........	-327.56
	9096	4548.5	1.60380E+000	9.68386E-001	0.00000E+000	1.60600E+000	-1.18421E-004	12	...........	-327.56
	9101	4551	1.60880E+000	9.80742E-001	0.00000E+000	1.61100E+000	-1.15088E-004	12	...........	-327.56
	9106	4553.5	1.61383E+000	9.88357E-001	0.00000E+000	1.61600E+000	-1.16555E-004	12	...........	-327.56
	9111	4556	1.61883E+000	9.93976E-001	0.00000E+000	1.62100E+000	-1.20088E-004	12	...........	-327.56
	9116	4558.5	1.62386E+000	1.00437E+000	0.00000E+000	1.62600E+000	-1.17288E-004	12	...........	-327.56
	9121	4561	1.62875E+000	1.01894E+000	0.00000E+000	1.63100E+000	-1.21221E-004	12	...........	-327.56
	9126	4563.5	1.63380E+000	1.02709E+000	0.00000E+000	1.63600E+000	-1.15921E-004	12	...........	-327.56
	9131	4566	1.63878E+000	1.03395E+000	0.00000E+000	1.64100E+000	-1.16955E-004	12	...........	-327.56
	9136	4568.5	1.64376E+000	1.04133E+000	0.00000E+000	1.64600E+000	-1.16721E-004	12	...........	-327.56
	9141	4571	1.64877E+000	1.05232E+000	0.00000E+000	1.65100E+000	-1.16121E-004	12	...........	-327.56
	9146	4573.5	1.65368E+000	1.06999E+000	0.00000E+000	1.65600E+000	-1.15155E-004	12	...........	-327.56
	9151	4576	1.65872E+000	1.07648E+000	0.00000E+000	1.66100E+000	-1.16221E-004	12	...........	-327.56
	9156	4578.5	1.66370E+000	1.08244E+000	0.00000E+000	1.66600E+000	-1.11255E-004	12	...........	-327.56
	9161	4581	1.66875E+000	1.09818E+000	0.00000E+000	1.67100E+000	-1.18288E-004	12	...........	-327.56
	9166	4583.5	1.67375E+000	1.11422E+000	0.00000E+000	1.67600E+000	-1.15888E-004	12	...........	-327.56
	9171	4586	1.67865E+000	1.11690E+000	0.00000E+000	1.68100E+000	-1.15988E-004	12	...........	-327.56
	9176	4588.5	1.68367E+000	1.12998E+000	0.00000E+000	1.68600E+000	-1.14988E-004	12	...........	-327.56
	9181	4591	1.68867E+000	1.13633E+000	0.00000E+000	1.69100E+000	-1.14521E-004	12	...........	-327.56
	9186	4593.5	1.69369E+000	1.14505E+000	0.00000E+000	1.69600E+000	-1.18721E-004	12	...........	-327.56
	9190	4595.5	1.69770E+000	1.15297E+000	0.00000E+000	1.70000E+000	-1.17255E-004	12	...........	-327.56