File: testing/data/240902_22_MCL13_cspWE_CV1_750C_CO2.DTA
EXPLAIN
TAG	CV
TITLE	LABEL	Cyclic Voltammetry	Test Identifier
DATE	LABEL	9/3/2024	Date
TIME	LABEL	22:45:35	Time
NOTES	NOTES	5	Notes...
	cswWE - carbon steel wire
cspWE - carbon steel plate 2x2 tapered

Carbon steel plate counter electrode
Carbon steel wire reference electrode
PSTAT	PSTAT	REF3000-48128	Potentiostat
VINIT	POTEN	0.00000E+000	T	Initial E (V)
VLIMIT1	POTEN	1.70000E+000	F	Scan Limit 1 (V)
VLIMIT2	POTEN	-6.00000E-001	F	Scan Limit 2 (V)
VFINAL	POTEN	1.70000E+000	F	Final E (V)
SCANRATE	QUANT	9.99998E-001	Scan Rate (mV/s)
STEPSIZE	QUANT	1.00000E+000	Step Size (mV)
CYCLES	IQUANT	2	Cycles (#)
IMODE	SELECTOR	0	I/E Range Mode
IRANGE	QUANT	3.00000E-001	Max Current (mA)
AREA	QUANT	1.00000E+000	Sample Area (cm^2)
EQDELAY	QUANT	0.00000E+000	Equil. Time (s)
IRCOMP	SELECTOR	0	IRComp
PFCOR	QUANT	5.00000E+001	PF Corr. (ohm)
SAMPLINGMODE	SELECTOR	1	Sampling Mode
EOC	QUANT	0.3759207	Open Circuit (V)
ELECTRODETYPE	SELECTOR	0	Electrode Type
STRIPPING	TOGGLE	F	Used for Stripping
SEQUENCER	TOGGLE	TRUE	Run as Sequence
PSTATMODEL	IQUANT	5	Pstat Model
PSTATSECTION	LABEL	REF3000-48128	Pstat Section
PSTATSERIALNO	LABEL	48128	Pstat Serial Number
CTRLMODE	IQUANT	1	Control Mode
ELECTROMETER	IQUANT	0	RE=0 or CS=1
IESTAB	IQUANT	2	I/E Stability
CASPEED	IQUANT	4	Control Amp Speed
CONVENTION	IQUANT	1	Current Convention
ICHRANGE	IQUANT	2	Ich Range
ICHRANGEMODE	TOGGLE	F	Ich Auto Range
ICHOFFSETENABLE	TOGGLE	F	Ich Offset Enable
ICHOFFSET	QUANT	0	Ich Offset (V)
ICHFILTER	IQUANT	3	Ich Filter
VCHRANGE	IQUANT	2	Vch Range
VCHRANGEMODE	TOGGLE	F	Vch Auto Range
VCHOFFSETENABLE	TOGGLE	F	Vch Offset Enable
VCHOFFSET	QUANT	0	Vch Offset (V)
VCHFILTER	IQUANT	3	Vch Filter
ACHRANGE	IQUANT	2	Ach Range
ACHOFFSETENABLE	TOGGLE	F	Ach Offset Enable
ACHOFFSET	QUANT	0	Ach Offset (V)
ACHFILTER	IQUANT	1	Ach Filter
IERANGELOWERLIMIT	IQUANT	2	I/E Range Lower Limit
IERANGEMODE	TOGGLE	T	I/E AutoRange
IERANGE	IQUANT	9	I/E Range
POSFEEDENABLE	TOGGLE	F	Positive Feedback IR Comp
POSFEEDRESISTANCE	QUANT	0	Positive Feedback Resistance (ohm)
ACHSELECT	IQUANT	4	Ach Select
SENSECABLEID	IQUANT	14	Sense Cable ID
PWRCABLEID	IQUANT	7	Power Cable ID
DCCALDATE	LABEL	8/16/2024	DC Calibration Date
ACCALDATE	LABEL	8/16/2024	AC Calibration Date
THERMOSELECT	IQUANT	1	Thermo Select
FRAMEWORKVERSION	LABEL	7.10.3	Framework Version
INSTRUMENTVERSION	LABEL	4.91	Instrument Version
COMMVERSION	LABEL	5.10	Communications Version
CPUPLDVERSION	LABEL	6.00	CPU PLD Version
CTRLPLDVERSION	LABEL	3.21	CTRL PLD Version
PSTATPLDVERSION	LABEL	0.00	PSTAT PLD Version
COMPLIANCEVOLTAGE	IQUANT	0	Compliance Voltage
CURVE1	TABLE
	Pt	T	Vf	Im	Vu	Sig	Ach	IERange	Over	Temp
	#	s	V vs. Ref.	A	V	V	V	#	bits	deg C
	0	1	3.74464E-001	3.29009E-003	0.00000E+000	3.75900E-001	-1.02738E-004	9	....ih..i..	-327.56
	8	9	3.83336E-001	5.07859E-002	0.00000E+000	3.83900E-001	-1.06371E-004	11	...........	-327.56
	16	17	3.91334E-001	8.24191E-002	0.00000E+000	3.91900E-001	-1.08388E-004	11	...........	-327.56
	24	25	3.99192E-001	1.07897E-001	0.00000E+000	3.99900E-001	-1.17838E-004	11	...........	-327.56
	32	33	4.07196E-001	1.29881E-001	0.00000E+000	4.07900E-001	-1.18721E-004	11	...........	-327.56
	40	41	4.15205E-001	1.48272E-001	0.00000E+000	4.15900E-001	-1.15038E-004	11	...........	-327.56
	48	49	4.23088E-001	1.65394E-001	0.00000E+000	4.23900E-001	-1.14838E-004	11	...........	-327.56
	56	57	4.31092E-001	1.80017E-001	0.00000E+000	4.31900E-001	-1.13255E-004	11	...........	-327.56
	64	65	4.39111E-001	1.93405E-001	0.00000E+000	4.39900E-001	-1.12455E-004	11	...........	-327.56
	72	73	4.47100E-001	2.05950E-001	0.00000E+000	4.47900E-001	-1.11971E-004	11	...........	-327.56
	80	81	4.55019E-001	2.16786E-001	0.00000E+000	4.55900E-001	-1.10571E-004	11	...........	-327.56
	88	89	4.63033E-001	2.26711E-001	0.00000E+000	4.63900E-001	-1.13471E-004	11	...........	-327.56
	96	97	4.71030E-001	2.35668E-001	0.00000E+000	4.71900E-001	-1.12188E-004	11	...........	-327.56
	104	105	4.78936E-001	2.55580E-001	0.00000E+000	4.79900E-001	-1.13121E-004	11	...........	-327.56
	112	113	4.86945E-001	2.60050E-001	0.00000E+000	4.87900E-001	-1.11888E-004	11	...........	-327.56
	120	121	4.94974E-001	2.66083E-001	0.00000E+000	4.95900E-001	-1.10905E-004	11	...........	-327.56
	128	129	5.03171E-001	2.73201E-001	0.00000E+000	5.03900E-001	-1.16621E-004	12	...........	-327.56
	136	137	5.11193E-001	2.78388E-001	0.00000E+000	5.11900E-001	-1.15538E-004	12	...........	-327.56
	144	145	5.19172E-001	2.83100E-001	0.00000E+000	5.19900E-001	-1.14588E-004	12	...........	-327.56
	152	153	5.27096E-001	2.88227E-001	0.00000E+000	5.27900E-001	-1.15838E-004	12	...........	-327.56
	160	161	5.35110E-001	2.92402E-001	0.00000E+000	5.35900E-001	-1.13371E-004	12	...........	-327.56
	168	169	5.43166E-001	2.96474E-001	0.00000E+000	5.43900E-001	-1.14971E-004	12	...........	-327.56
	176	177	5.51051E-001	3.01812E-001	0.00000E+000	5.51900E-001	-1.16005E-004	12	...........	-327.56
	184	185	5.59087E-001	3.04435E-001	0.00000E+000	5.59900E-001	-1.17121E-004	12	...........	-327.56
	192	193	5.67125E-001	3.06105E-001	0.00000E+000	5.67900E-001	-1.16805E-004	12	...........	-327.56
	200	201	5.75125E-001	3.08661E-001	0.00000E+000	5.75900E-001	-1.14705E-004	12	...........	-327.56
	208	209	5.83055E-001	3.10246E-001	0.00000E+000	5.83900E-001	-1.15188E-004	12	...........	-327.56
	216	217	5.91094E-001	3.11368E-001	0.00000E+000	5.91900E-001	-1.16488E-004	12	...........	-327.56
	224	225	5.99106E-001	3.13292E-001	0.00000E+000	5.99900E-001	-1.15138E-004	12	...........	-327.56
	232	233	6.07054E-001	3.13728E-001	0.00000E+000	6.07900E-001	-1.17805E-004	12	...........	-327.56
	240	241	6.15059E-001	3.14553E-001	0.00000E+000	6.15900E-001	-1.15721E-004	12	...........	-327.56
	248	249	6.23080E-001	3.14160E-001	0.00000E+000	6.23900E-001	-1.16855E-004	12	...........	-327.56
	256	257	6.31006E-001	3.14850E-001	0.00000E+000	6.31900E-001	-1.16421E-004	12	...........	-327.56
	264	265	6.39026E-001	3.15224E-001	0.00000E+000	6.39900E-001	-1.15371E-004	12	...........	-327.56
	272	273	6.47076E-001	3.14839E-001	0.00000E+000	6.47900E-001	-1.13538E-004	12	...........	-327.56
	280	281	6.54982E-001	3.14110E-001	0.00000E+000	6.55900E-001	-1.21371E-004	12	...........	-327.56
	288	289	6.63020E-001	3.12494E-001	0.00000E+000	6.63900E-001	-1.17338E-004	12	...........	-327.56
	296	297	6.71051E-001	3.10798E-001	0.00000E+000	6.71900E-001	-1.16088E-004	12	...........	-327.56
	304	305	6.78955E-001	3.08673E-001	0.00000E+000	6.79900E-001	-1.16155E-004	12	...........	-327.56
	312	313	6.87000E-001	3.06322E-001	0.00000E+000	6.87900E-001	-1.17621E-004	12	...........	-327.56
	320	321	6.95037E-001	3.03103E-001	0.00000E+000	6.95900E-001	-1.15771E-004	12	...........	-327.56
	328	329	7.03052E-001	2.99237E-001	0.00000E+000	7.03900E-001	-1.16555E-004	12	...........	-327.56
	336	337	7.10990E-001	2.95187E-001	0.00000E+000	7.11900E-001	-1.15155E-004	12	...........	-327.56
	344	345	7.18987E-001	2.91529E-001	0.00000E+000	7.19900E-001	-1.15488E-004	12	...........	-327.56
	352	353	7.27004E-001	2.86746E-001	0.00000E+000	7.27900E-001	-1.13888E-004	12	...........	-327.56
	360	361	7.34949E-001	2.82305E-001	0.00000E+000	7.35900E-001	-1.21371E-004	12	...........	-327.56
	368	369	7.42967E-001	2.76953E-001	0.00000E+000	7.43900E-001	-1.16088E-004	12	...........	-327.56
	376	377	7.51002E-001	2.71367E-001	0.00000E+000	7.51900E-001	-1.17355E-004	12	...........	-327.56
	384	385	7.58922E-001	2.65809E-001	0.00000E+000	7.59900E-001	-1.21321E-004	12	...........	-327.56
	392	393	7.66964E-001	2.60539E-001	0.00000E+000	7.67900E-001	-1.20538E-004	12	...........	-327.56
	400	401	7.74982E-001	2.54454E-001	0.00000E+000	7.75900E-001	-1.15838E-004	12	...........	-327.56
	408	409	7.82891E-001	2.49172E-001	0.00000E+000	7.83900E-001	-1.17905E-004	12	...........	-327.56
	416	417	7.90933E-001	2.44038E-001	0.00000E+000	7.91900E-001	-1.17655E-004	12	...........	-327.56
	424	425	7.98722E-001	2.38874E-001	0.00000E+000	7.99900E-001	-1.15321E-004	11	...........	-327.56
	432	433	8.06634E-001	2.34349E-001	0.00000E+000	8.07900E-001	-1.15438E-004	11	...........	-327.56
	440	441	8.14679E-001	2.29728E-001	0.00000E+000	8.15900E-001	-1.15855E-004	11	...........	-327.56
	448	449	8.22673E-001	2.26044E-001	0.00000E+000	8.23900E-001	-1.15671E-004	11	...........	-327.56
	456	457	8.30690E-001	2.22590E-001	0.00000E+000	8.31900E-001	-1.17121E-004	11	...........	-327.56
	464	465	8.38640E-001	2.18438E-001	0.00000E+000	8.39900E-001	-1.15538E-004	11	...........	-327.56
	472	473	8.46675E-001	2.15155E-001	0.00000E+000	8.47900E-001	-1.17771E-004	11	...........	-327.56
	480	481	8.54689E-001	2.12430E-001	0.00000E+000	8.55900E-001	-1.13921E-004	11	...........	-327.56
	488	489	8.62644E-001	2.09661E-001	0.00000E+000	8.63900E-001	-1.16755E-004	11	...........	-327.56
	496	497	8.70646E-001	2.07475E-001	0.00000E+000	8.71900E-001	-1.16355E-004	11	...........	-327.56
	504	505	8.78699E-001	2.05403E-001	0.00000E+000	8.79900E-001	-1.16071E-004	11	...........	-327.56
	512	513	8.86622E-001	2.02878E-001	0.00000E+000	8.87900E-001	-1.15021E-004	11	...........	-327.56
	520	521	8.94647E-001	2.00801E-001	0.00000E+000	8.95900E-001	-1.14821E-004	11	...........	-327.56
	528	529	9.02684E-001	1.98771E-001	0.00000E+000	9.03900E-001	-1.14938E-004	11	...........	-327.56
	536	537	9.10604E-001	1.97487E-001	0.00000E+000	9.11900E-001	-1.17838E-004	11	...........	-327.56
	544	545	9.18638E-001	1.96621E-001	0.00000E+000	9.19900E-001	-1.17271E-004	11	...........	-327.56
	552	553	9.26639E-001	1.95248E-001	0.00000E+000	9.27900E-001	-1.17388E-004	11	...........	-327.56
	560	561	9.34569E-001	1.94937E-001	0.00000E+000	9.35900E-001	-1.16805E-004	11	...........	-327.56
	568	569	9.42594E-001	1.93916E-001	0.00000E+000	9.43900E-001	-1.17288E-004	11	...........	-327.56
	576	577	9.50630E-001	1.93984E-001	0.00000E+000	9.51900E-001	-1.16971E-004	11	...........	-327.56
	584	585	9.58642E-001	1.93444E-001	0.00000E+000	9.59900E-001	-1.17138E-004	11	...........	-327.56
	592	593	9.66571E-001	1.92644E-001	0.00000E+000	9.67900E-001	-1.16871E-004	11	...........	-327.56
	600	601	9.74598E-001	1.93378E-001	0.00000E+000	9.75900E-001	-1.19538E-004	11	...........	-327.56
	608	609	9.82605E-001	1.93421E-001	0.00000E+000	9.83900E-001	-1.17205E-004	11	...........	-327.56
	616	617	9.90556E-001	1.93888E-001	0.00000E+000	9.91900E-001	-1.17971E-004	11	...........	-327.56
	624	625	9.98555E-001	1.95141E-001	0.00000E+000	9.99900E-001	-1.18838E-004	11	...........	-327.56
	632	633	1.00660E+000	1.97071E-001	0.00000E+000	1.00790E+000	-1.18555E-004	11	...........	-327.56
	640	641	1.01448E+000	1.98954E-001	0.00000E+000	1.01590E+000	-1.17455E-004	11	...........	-327.56
	648	649	1.02254E+000	2.01884E-001	0.00000E+000	1.02390E+000	-1.18021E-004	11	...........	-327.56
	656	657	1.03056E+000	2.05409E-001	0.00000E+000	1.03190E+000	-1.17471E-004	11	...........	-327.56
	664	665	1.03843E+000	2.09334E-001	0.00000E+000	1.03990E+000	-1.19888E-004	11	...........	-327.56
	672	673	1.04648E+000	2.14507E-001	0.00000E+000	1.04790E+000	-1.19821E-004	11	...........	-327.56
	680	681	1.05450E+000	2.20407E-001	0.00000E+000	1.05590E+000	-1.19738E-004	11	...........	-327.56
	688	689	1.06246E+000	2.27265E-001	0.00000E+000	1.06390E+000	-1.16171E-004	11	...........	-327.56
	696	697	1.07041E+000	2.34996E-001	0.00000E+000	1.07190E+000	-1.18921E-004	11	...........	-327.56
	704	705	1.07868E+000	2.58580E-001	0.00000E+000	1.07990E+000	-1.19721E-004	12	...........	-327.56
	712	713	1.08671E+000	2.59649E-001	0.00000E+000	1.08790E+000	-1.18788E-004	12	...........	-327.56
	720	721	1.09463E+000	2.68980E-001	0.00000E+000	1.09590E+000	-1.19321E-004	12	...........	-327.56
	728	729	1.10268E+000	2.79328E-001	0.00000E+000	1.10390E+000	-1.20155E-004	12	...........	-327.56
	736	737	1.11068E+000	2.90640E-001	0.00000E+000	1.11190E+000	-1.17721E-004	12	...........	-327.56
	744	745	1.11861E+000	3.02212E-001	0.00000E+000	1.11990E+000	-1.21555E-004	12	...........	-327.56
	752	753	1.12656E+000	3.14254E-001	0.00000E+000	1.12790E+000	-1.24338E-004	12	...........	-327.56
	760	761	1.13458E+000	3.26741E-001	0.00000E+000	1.13590E+000	-1.22521E-004	12	...........	-327.56
	768	769	1.14250E+000	3.39531E-001	0.00000E+000	1.14390E+000	-1.23188E-004	12	...........	-327.56
	776	777	1.15052E+000	3.52742E-001	0.00000E+000	1.15190E+000	-1.20955E-004	12	...........	-327.56
	784	785	1.15855E+000	3.66569E-001	0.00000E+000	1.15990E+000	-1.20538E-004	12	...........	-327.56
	792	793	1.16640E+000	3.81193E-001	0.00000E+000	1.16790E+000	-1.22371E-004	12	...........	-327.56
	800	801	1.17446E+000	3.95777E-001	0.00000E+000	1.17590E+000	-1.20505E-004	12	...........	-327.56
	808	809	1.18248E+000	4.09734E-001	0.00000E+000	1.18390E+000	-1.21571E-004	12	...........	-327.56
	816	817	1.19045E+000	4.24097E-001	0.00000E+000	1.19190E+000	-1.19655E-004	12	...........	-327.56
	824	825	1.19840E+000	4.40067E-001	0.00000E+000	1.19990E+000	-1.20905E-004	12	...........	-327.56
	832	833	1.20641E+000	4.54104E-001	0.00000E+000	1.20790E+000	-1.22121E-004	12	...........	-327.56
	840	841	1.21444E+000	4.68583E-001	0.00000E+000	1.21590E+000	-1.22138E-004	12	...........	-327.56
	848	849	1.22236E+000	4.87714E-001	0.00000E+000	1.22390E+000	-1.20721E-004	12	...........	-327.56
	856	857	1.23038E+000	4.97937E-001	0.00000E+000	1.23190E+000	-1.22271E-004	12	...........	-327.56
	864	865	1.23839E+000	5.13597E-001	0.00000E+000	1.23990E+000	-1.22238E-004	12	...........	-327.56
	872	873	1.24635E+000	5.41671E-001	0.00000E+000	1.24790E+000	-1.22705E-004	12	...........	-327.56
	880	881	1.25435E+000	5.50040E-001	0.00000E+000	1.25590E+000	-1.19588E-004	12	...........	-327.56
	888	889	1.26236E+000	5.71011E-001	0.00000E+000	1.26390E+000	-1.22255E-004	12	...........	-327.56
	896	897	1.27033E+000	5.96941E-001	0.00000E+000	1.27190E+000	-1.23938E-004	12	...........	-327.56
	904	905	1.27832E+000	6.17593E-001	0.00000E+000	1.27990E+000	-1.22638E-004	12	...........	-327.56
	912	913	1.28630E+000	6.46769E-001	0.00000E+000	1.28790E+000	-1.22221E-004	12	...........	-327.56
	920	921	1.29428E+000	6.77201E-001	0.00000E+000	1.29590E+000	-1.24521E-004	12	...........	-327.56
	928	929	1.30222E+000	7.20521E-001	0.00000E+000	1.30390E+000	-1.22938E-004	12	...........	-327.56
	936	937	1.31023E+000	7.45923E-001	0.00000E+000	1.31190E+000	-1.23671E-004	12	...........	-327.56
	944	945	1.31819E+000	7.86236E-001	0.00000E+000	1.31990E+000	-1.21238E-004	12	...........	-327.56
	952	953	1.32609E+000	8.29086E-001	0.00000E+000	1.32790E+000	-1.25071E-004	12	...........	-327.56
	960	961	1.33405E+000	8.70422E-001	0.00000E+000	1.33590E+000	-1.22355E-004	12	...........	-327.56
	968	969	1.34205E+000	9.13088E-001	0.00000E+000	1.34390E+000	-1.20938E-004	12	...........	-327.56
	976	977	1.34994E+000	9.57279E-001	0.00000E+000	1.35190E+000	-1.20788E-004	12	...........	-327.56
	984	985	1.35796E+000	1.00446E+000	0.00000E+000	1.35990E+000	-1.22455E-004	12	...........	-327.56
	992	993	1.36594E+000	1.03995E+000	0.00000E+000	1.36790E+000	-1.20921E-004	12	...........	-327.56
	1000	1001	1.37386E+000	1.07330E+000	0.00000E+000	1.37590E+000	-1.22738E-004	12	...........	-327.56
	1008	1009	1.38186E+000	1.11514E+000	0.00000E+000	1.38390E+000	-1.19605E-004	12	...........	-327.56
	1016	1017	1.38986E+000	1.15267E+000	0.00000E+000	1.39190E+000	-1.24088E-004	12	...........	-327.56
	1024	1025	1.39777E+000	1.18335E+000	0.00000E+000	1.39990E+000	-1.25971E-004	12	...........	-327.56
	1032	1033	1.40579E+000	1.20922E+000	0.00000E+000	1.40790E+000	-1.22955E-004	12	...........	-327.56
	1040	1041	1.41382E+000	1.24008E+000	0.00000E+000	1.41590E+000	-1.23238E-004	12	...........	-327.56
	1048	1049	1.42170E+000	1.27154E+000	0.00000E+000	1.42390E+000	-1.27705E-004	12	...........	-327.56
	1056	1057	1.42973E+000	1.30108E+000	0.00000E+000	1.43190E+000	-1.26705E-004	12	...........	-327.56
	1064	1065	1.43773E+000	1.32997E+000	0.00000E+000	1.43990E+000	-1.22438E-004	12	...........	-327.56
	1072	1073	1.44572E+000	1.35345E+000	0.00000E+000	1.44790E+000	-1.27555E-004	12	...........	-327.56
	1080	1081	1.45364E+000	1.38410E+000	0.00000E+000	1.45590E+000	-1.23838E-004	12	...........	-327.56
	1088	1089	1.46167E+000	1.40686E+000	0.00000E+000	1.46390E+000	-1.23188E-004	12	...........	-327.56
	1096	1097	1.46966E+000	1.44018E+000	0.00000E+000	1.47190E+000	-1.23338E-004	12	...........	-327.56
	1104	1105	1.47759E+000	1.46399E+000	0.00000E+000	1.47990E+000	-1.21038E-004	12	...........	-327.56
	1112	1113	1.48560E+000	1.48898E+000	0.00000E+000	1.48790E+000	-1.20571E-004	12	...........	-327.56
	1120	1121	1.49364E+000	1.51741E+000	0.00000E+000	1.49590E+000	-1.25638E-004	12	...........	-327.56
	1128	1129	1.50153E+000	1.54022E+000	0.00000E+000	1.50390E+000	-1.20838E-004	12	...........	-327.56
	1136	1137	1.50954E+000	1.56851E+000	0.00000E+000	1.51190E+000	-1.21321E-004	12	...........	-327.56
	1144	1145	1.51759E+000	1.58502E+000	0.00000E+000	1.51990E+000	-1.19821E-004	12	...........	-327.56
	1152	1153	1.52550E+000	1.60980E+000	0.00000E+000	1.52790E+000	-1.23355E-004	12	...........	-327.56
	1160	1161	1.53353E+000	1.63428E+000	0.00000E+000	1.53590E+000	-1.20638E-004	12	...........	-327.56
	1168	1169	1.54151E+000	1.65635E+000	0.00000E+000	1.54390E+000	-1.18155E-004	12	...........	-327.56
	1176	1177	1.54942E+000	1.68084E+000	0.00000E+000	1.55190E+000	-1.21071E-004	12	...........	-327.56
	1184	1185	1.55744E+000	1.69448E+000	0.00000E+000	1.55990E+000	-1.19788E-004	12	...........	-327.56
	1192	1193	1.56548E+000	1.71761E+000	0.00000E+000	1.56790E+000	-1.20121E-004	12	...........	-327.56
	1200	1201	1.57348E+000	1.74549E+000	0.00000E+000	1.57590E+000	-1.22155E-004	12	...........	-327.56
	1208	1209	1.58140E+000	1.76237E+000	0.00000E+000	1.58390E+000	-1.21138E-004	12	...........	-327.56
	1216	1217	1.58944E+000	1.78097E+000	0.00000E+000	1.59190E+000	-1.20671E-004	12	...........	-327.56
	1224	1225	1.59744E+000	1.79915E+000	0.00000E+000	1.59990E+000	-1.16721E-004	12	...........	-327.56
	1232	1233	1.60537E+000	1.82336E+000	0.00000E+000	1.60790E+000	-1.21671E-004	12	...........	-327.56
	1240	1241	1.61339E+000	1.84837E+000	0.00000E+000	1.61590E+000	-1.18821E-004	12	...........	-327.56
	1248	1249	1.62143E+000	1.87360E+000	0.00000E+000	1.62390E+000	-1.18138E-004	12	...........	-327.56
	1256	1257	1.62934E+000	1.89443E+000	0.00000E+000	1.63190E+000	-1.20688E-004	12	...........	-327.56
	1264	1265	1.63735E+000	1.91932E+000	0.00000E+000	1.63990E+000	-1.19438E-004	12	...........	-327.56
	1272	1273	1.64536E+000	1.93952E+000	0.00000E+000	1.64790E+000	-1.17955E-004	12	...........	-327.56
	1280	1281	1.65328E+000	1.96343E+000	0.00000E+000	1.65590E+000	-1.21105E-004	12	...........	-327.56
	1288	1289	1.66131E+000	1.98221E+000	0.00000E+000	1.66390E+000	-1.17538E-004	12	...........	-327.56
	1296	1297	1.66934E+000	2.00620E+000	0.00000E+000	1.67190E+000	-1.19288E-004	12	...........	-327.56
	1304	1305	1.67723E+000	2.02430E+000	0.00000E+000	1.67990E+000	-1.18905E-004	12	...........	-327.56
	1312	1313	1.68528E+000	2.04775E+000	0.00000E+000	1.68790E+000	-1.17755E-004	12	...........	-327.56
	1320	1321	1.69331E+000	2.07484E+000	0.00000E+000	1.69590E+000	-1.16421E-004	12	...........	-327.56
	1328	1329	1.69333E+000	2.07292E+000	0.00000E+000	1.69590E+000	-1.16138E-004	12	...........	-327.56
	1336	1337	1.68527E+000	2.04766E+000	0.00000E+000	1.68790E+000	-1.15538E-004	12	...........	-327.56
	1344	1345	1.67723E+000	2.02205E+000	0.00000E+000	1.67990E+000	-1.19088E-004	12	...........	-327.56
	1352	1353	1.66934E+000	2.00378E+000	0.00000E+000	1.67190E+000	-1.16655E-004	12	...........	-327.56
	1360	1361	1.66130E+000	1.98226E+000	0.00000E+000	1.66390E+000	-1.17521E-004	12	...........	-327.56
	1368	1369	1.65327E+000	1.95496E+000	0.00000E+000	1.65590E+000	-1.18638E-004	12	...........	-327.56
	1376	1377	1.64538E+000	1.93082E+000	0.00000E+000	1.64790E+000	-1.17771E-004	12	...........	-327.56
	1384	1385	1.63736E+000	1.90230E+000	0.00000E+000	1.63990E+000	-1.15771E-004	12	...........	-327.56
	1392	1393	1.62936E+000	1.87648E+000	0.00000E+000	1.63190E+000	-1.20038E-004	12	...........	-327.56
	1400	1401	1.62142E+000	1.85110E+000	0.00000E+000	1.62390E+000	-1.16555E-004	12	...........	-327.56
	1408	1409	1.61339E+000	1.83056E+000	0.00000E+000	1.61590E+000	-1.16155E-004	12	...........	-327.56
	1416	1417	1.60538E+000	1.78101E+000	0.00000E+000	1.60790E+000	-1.17371E-004	12	...........	-327.56
	1424	1425	1.59745E+000	1.76229E+000	0.00000E+000	1.59990E+000	-1.13621E-004	12	...........	-327.56
	1432	1433	1.58942E+000	1.75001E+000	0.00000E+000	1.59190E+000	-1.15105E-004	12	...........	-327.56
	1440	1441	1.58142E+000	1.72619E+000	0.00000E+000	1.58390E+000	-1.18455E-004	12	...........	-327.56
	1448	1449	1.57347E+000	1.70487E+000	0.00000E+000	1.57590E+000	-1.15771E-004	12	...........	-327.56
	1456	1457	1.56548E+000	1.67887E+000	0.00000E+000	1.56790E+000	-1.14905E-004	12	...........	-327.56
	1464	1465	1.55744E+000	1.65310E+000	0.00000E+000	1.55990E+000	-1.18021E-004	12	...........	-327.56
	1472	1473	1.54941E+000	1.62754E+000	0.00000E+000	1.55190E+000	-1.19605E-004	12	...........	-327.56
	1480	1481	1.54152E+000	1.60514E+000	0.00000E+000	1.54390E+000	-1.12288E-004	12	...........	-327.56
	1488	1489	1.53352E+000	1.58248E+000	0.00000E+000	1.53590E+000	-1.14638E-004	12	...........	-327.56
	1496	1497	1.52552E+000	1.55156E+000	0.00000E+000	1.52790E+000	-1.18921E-004	12	...........	-327.56
	1504	1505	1.51758E+000	1.53264E+000	0.00000E+000	1.51990E+000	-1.16821E-004	12	...........	-327.56
	1512	1513	1.50956E+000	1.50908E+000	0.00000E+000	1.51190E+000	-1.14655E-004	12	...........	-327.56
	1520	1521	1.50154E+000	1.49987E+000	0.00000E+000	1.50390E+000	-1.14055E-004	12	...........	-327.56
	1528	1529	1.49362E+000	1.48065E+000	0.00000E+000	1.49590E+000	-1.17371E-004	12	...........	-327.56
	1536	1537	1.48561E+000	1.45209E+000	0.00000E+000	1.48790E+000	-1.16688E-004	12	...........	-327.56
	1544	1545	1.47759E+000	1.42998E+000	0.00000E+000	1.47990E+000	-1.19021E-004	12	...........	-327.56
	1552	1553	1.46966E+000	1.40281E+000	0.00000E+000	1.47190E+000	-1.19721E-004	12	...........	-327.56
	1560	1561	1.46169E+000	1.38172E+000	0.00000E+000	1.46390E+000	-1.17688E-004	12	...........	-327.56
	1568	1569	1.45364E+000	1.35538E+000	0.00000E+000	1.45590E+000	-1.16321E-004	12	...........	-327.56
	1576	1577	1.44573E+000	1.31314E+000	0.00000E+000	1.44790E+000	-1.20271E-004	12	...........	-327.56
	1584	1585	1.43772E+000	1.29767E+000	0.00000E+000	1.43990E+000	-1.16988E-004	12	...........	-327.56
	1592	1593	1.42971E+000	1.27824E+000	0.00000E+000	1.43190E+000	-1.19088E-004	12	...........	-327.56
	1600	1601	1.42169E+000	1.25372E+000	0.00000E+000	1.42390E+000	-1.21355E-004	12	...........	-327.56
	1608	1609	1.41380E+000	1.22845E+000	0.00000E+000	1.41590E+000	-1.18171E-004	12	...........	-327.56
	1616	1617	1.40577E+000	1.20341E+000	0.00000E+000	1.40790E+000	-1.17955E-004	12	...........	-327.56
	1624	1625	1.39775E+000	1.18797E+000	0.00000E+000	1.39990E+000	-1.18538E-004	12	...........	-327.56
	1632	1633	1.38984E+000	1.15959E+000	0.00000E+000	1.39190E+000	-1.16221E-004	12	...........	-327.56
	1640	1641	1.38182E+000	1.14343E+000	0.00000E+000	1.38390E+000	-1.16371E-004	12	...........	-327.56
	1648	1649	1.37381E+000	1.12493E+000	0.00000E+000	1.37590E+000	-1.16938E-004	12	...........	-327.56
	1656	1657	1.36588E+000	1.10155E+000	0.00000E+000	1.36790E+000	-1.17238E-004	12	...........	-327.56
	1664	1665	1.35790E+000	1.08156E+000	0.00000E+000	1.35990E+000	-1.17971E-004	12	...........	-327.56
	1672	1673	1.34988E+000	1.05873E+000	0.00000E+000	1.35190E+000	-1.15405E-004	12	...........	-327.56
	1680	1681	1.34194E+000	1.03078E+000	0.00000E+000	1.34390E+000	-1.16221E-004	12	...........	-327.56
	1688	1689	1.33395E+000	1.01053E+000	0.00000E+000	1.33590E+000	-1.15055E-004	12	...........	-327.56
	1696	1697	1.32596E+000	9.87681E-001	0.00000E+000	1.32790E+000	-1.15655E-004	12	...........	-327.56
	1704	1705	1.31805E+000	9.65405E-001	0.00000E+000	1.31990E+000	-1.16871E-004	12	...........	-327.56
	1712	1713	1.31004E+000	9.41689E-001	0.00000E+000	1.31190E+000	-1.13805E-004	12	...........	-327.56
	1720	1721	1.30203E+000	9.17542E-001	0.00000E+000	1.30390E+000	-1.13771E-004	12	...........	-327.56
	1728	1729	1.29401E+000	8.95913E-001	0.00000E+000	1.29590E+000	-1.17038E-004	12	...........	-327.56
	1736	1737	1.28610E+000	8.83244E-001	0.00000E+000	1.28790E+000	-1.16005E-004	12	...........	-327.56
	1744	1745	1.27810E+000	8.64940E-001	0.00000E+000	1.27990E+000	-1.13571E-004	12	...........	-327.56
	1752	1753	1.27011E+000	8.43063E-001	0.00000E+000	1.27190E+000	-1.15988E-004	12	...........	-327.56
	1760	1761	1.26218E+000	8.15264E-001	0.00000E+000	1.26390E+000	-1.13671E-004	12	...........	-327.56
	1768	1769	1.25415E+000	7.91001E-001	0.00000E+000	1.25590E+000	-1.15655E-004	12	...........	-327.56
	1776	1777	1.24618E+000	7.65046E-001	0.00000E+000	1.24790E+000	-1.16188E-004	12	...........	-327.56
	1784	1785	1.23825E+000	7.45845E-001	0.00000E+000	1.23990E+000	-1.16588E-004	12	...........	-327.56
	1792	1793	1.23026E+000	7.31396E-001	0.00000E+000	1.23190E+000	-1.15188E-004	12	...........	-327.56
	1800	1801	1.22224E+000	7.09288E-001	0.00000E+000	1.22390E+000	-1.18088E-004	12	...........	-327.56
	1808	1809	1.21428E+000	6.92552E-001	0.00000E+000	1.21590E+000	-1.17505E-004	12	...........	-327.56
	1816	1817	1.20631E+000	6.66176E-001	0.00000E+000	1.20790E+000	-1.17905E-004	12	...........	-327.56
	1824	1825	1.19829E+000	6.46594E-001	0.00000E+000	1.19990E+000	-1.13805E-004	12	...........	-327.56
	1832	1833	1.19033E+000	6.22366E-001	0.00000E+000	1.19190E+000	-1.14571E-004	12	...........	-327.56
	1840	1841	1.18235E+000	5.93579E-001	0.00000E+000	1.18390E+000	-1.14155E-004	12	...........	-327.56
	1848	1849	1.17434E+000	5.70508E-001	0.00000E+000	1.17590E+000	-1.17605E-004	12	...........	-327.56
	1856	1857	1.16634E+000	5.44005E-001	0.00000E+000	1.16790E+000	-1.16288E-004	12	...........	-327.56
	1864	1865	1.15839E+000	5.21525E-001	0.00000E+000	1.15990E+000	-1.17855E-004	12	...........	-327.56
	1872	1873	1.15037E+000	4.94906E-001	0.00000E+000	1.15190E+000	-1.18988E-004	12	...........	-327.56
	1880	1881	1.14237E+000	4.70935E-001	0.00000E+000	1.14390E+000	-1.13305E-004	12	...........	-327.56
	1888	1889	1.13448E+000	4.46386E-001	0.00000E+000	1.13590E+000	-1.16388E-004	12	...........	-327.56
	1896	1897	1.12647E+000	4.28134E-001	0.00000E+000	1.12790E+000	-1.14521E-004	12	...........	-327.56
	1904	1905	1.11849E+000	4.04418E-001	0.00000E+000	1.11990E+000	-1.15005E-004	12	...........	-327.56
	1912	1913	1.11059E+000	3.80911E-001	0.00000E+000	1.11190E+000	-1.17588E-004	12	...........	-327.56
	1920	1921	1.10259E+000	3.56560E-001	0.00000E+000	1.10390E+000	-1.15788E-004	12	...........	-327.56
	1928	1929	1.09458E+000	3.37014E-001	0.00000E+000	1.09590E+000	-1.18055E-004	12	...........	-327.56
	1936	1937	1.08665E+000	3.18347E-001	0.00000E+000	1.08790E+000	-1.13188E-004	12	...........	-327.56
	1944	1945	1.07864E+000	2.97728E-001	0.00000E+000	1.07990E+000	-1.10821E-004	12	...........	-327.56
	1952	1953	1.07064E+000	2.78778E-001	0.00000E+000	1.07190E+000	-1.16655E-004	12	...........	-327.56
	1960	1961	1.06260E+000	2.61201E-001	0.00000E+000	1.06390E+000	-1.15571E-004	12	...........	-327.56
	1968	1969	1.05472E+000	2.43259E-001	0.00000E+000	1.05590E+000	-1.14405E-004	12	...........	-327.56
	1976	1977	1.04642E+000	2.32391E-001	0.00000E+000	1.04790E+000	-1.16338E-004	11	...........	-327.56
	1984	1985	1.03840E+000	2.12428E-001	0.00000E+000	1.03990E+000	-1.16021E-004	11	...........	-327.56
	1992	1993	1.03054E+000	1.99635E-001	0.00000E+000	1.03190E+000	-1.15271E-004	11	...........	-327.56
	2000	2001	1.02255E+000	1.88772E-001	0.00000E+000	1.02390E+000	-1.13221E-004	11	...........	-327.56
	2008	2009	1.01451E+000	1.76533E-001	0.00000E+000	1.01590E+000	-1.14921E-004	11	...........	-327.56
	2016	2017	1.00664E+000	1.65507E-001	0.00000E+000	1.00790E+000	-1.16221E-004	11	...........	-327.56
	2024	2025	9.98610E-001	1.56506E-001	0.00000E+000	9.99900E-001	-1.14721E-004	11	...........	-327.56
	2032	2033	9.90609E-001	1.49314E-001	0.00000E+000	9.91900E-001	-1.15538E-004	11	...........	-327.56
	2040	2041	9.82681E-001	1.43187E-001	0.00000E+000	9.83900E-001	-1.14505E-004	11	...........	-327.56
	2048	2049	9.74679E-001	1.36971E-001	0.00000E+000	9.75900E-001	-1.15971E-004	11	...........	-327.56
	2056	2057	9.66651E-001	1.31843E-001	0.00000E+000	9.67900E-001	-1.15455E-004	11	...........	-327.56
	2064	2065	9.58709E-001	1.27508E-001	0.00000E+000	9.59900E-001	-1.15938E-004	11	...........	-327.56
	2072	2073	9.50746E-001	1.24022E-001	0.00000E+000	9.51900E-001	-1.16005E-004	11	...........	-327.56
	2080	2081	9.42684E-001	1.20142E-001	0.00000E+000	9.43900E-001	-1.14588E-004	11	...........	-327.56
	2088	2089	9.34659E-001	1.17136E-001	0.00000E+000	9.35900E-001	-1.14888E-004	11	...........	-327.56
	2096	2097	9.26758E-001	1.14543E-001	0.00000E+000	9.27900E-001	-1.14438E-004	11	...........	-327.56
	2104	2105	9.18762E-001	1.11554E-001	0.00000E+000	9.19900E-001	-1.16805E-004	11	...........	-327.56
	2112	2113	9.10744E-001	1.09254E-001	0.00000E+000	9.11900E-001	-1.19205E-004	11	...........	-327.56
	2120	2121	9.02830E-001	1.07656E-001	0.00000E+000	9.03900E-001	-1.14055E-004	11	...........	-327.56
	2128	2129	8.94787E-001	1.05687E-001	0.00000E+000	8.95900E-001	-1.15288E-004	11	...........	-327.56
	2136	2137	8.86779E-001	1.05320E-001	0.00000E+000	8.87900E-001	-1.14355E-004	11	...........	-327.56
	2144	2145	8.78837E-001	1.04043E-001	0.00000E+000	8.79900E-001	-1.13238E-004	11	...........	-327.56
	2152	2153	8.70804E-001	1.03678E-001	0.00000E+000	8.71900E-001	-1.15671E-004	11	...........	-327.56
	2160	2161	8.62800E-001	1.03907E-001	0.00000E+000	8.63900E-001	-1.16871E-004	11	...........	-327.56
	2168	2169	8.54883E-001	1.04353E-001	0.00000E+000	8.55900E-001	-1.14921E-004	11	...........	-327.56
	2176	2177	8.46845E-001	1.03930E-001	0.00000E+000	8.47900E-001	-1.17655E-004	11	...........	-327.56
	2184	2185	8.38824E-001	1.03338E-001	0.00000E+000	8.39900E-001	-1.15921E-004	11	...........	-327.56
	2192	2193	8.30876E-001	1.01694E-001	0.00000E+000	8.31900E-001	-1.15888E-004	11	...........	-327.56
	2200	2201	8.22877E-001	1.01570E-001	0.00000E+000	8.23900E-001	-1.15121E-004	11	...........	-327.56
	2208	2209	8.14897E-001	1.00702E-001	0.00000E+000	8.15900E-001	-1.17605E-004	11	...........	-327.56
	2216	2217	8.06859E-001	1.00477E-001	0.00000E+000	8.07900E-001	-1.17321E-004	11	...........	-327.56
	2224	2225	7.98963E-001	1.00040E-001	0.00000E+000	7.99900E-001	-1.18871E-004	11	...........	-327.56
	2232	2233	7.90908E-001	1.00127E-001	0.00000E+000	7.91900E-001	-1.18838E-004	11	...........	-327.56
	2240	2241	7.82870E-001	1.00055E-001	0.00000E+000	7.83900E-001	-1.19955E-004	11	...........	-327.56
	2248	2249	7.74976E-001	9.99669E-002	0.00000E+000	7.75900E-001	-1.15371E-004	11	...........	-327.56
	2256	2257	7.66932E-001	1.00637E-001	0.00000E+000	7.67900E-001	-1.17755E-004	11	...........	-327.56
	2264	2265	7.58917E-001	1.01302E-001	0.00000E+000	7.59900E-001	-1.17321E-004	11	...........	-327.56
	2272	2273	7.50985E-001	1.02153E-001	0.00000E+000	7.51900E-001	-1.15755E-004	11	...........	-327.56
	2280	2281	7.42960E-001	1.01828E-001	0.00000E+000	7.43900E-001	-1.15105E-004	11	...........	-327.56
	2288	2289	7.34932E-001	1.01441E-001	0.00000E+000	7.35900E-001	-1.18721E-004	11	...........	-327.56
	2296	2297	7.27004E-001	9.87975E-002	0.00000E+000	7.27900E-001	-1.15438E-004	11	...........	-327.56
	2304	2305	7.19002E-001	9.67831E-002	0.00000E+000	7.19900E-001	-1.15988E-004	11	...........	-327.56
	2312	2313	7.11010E-001	9.46559E-002	0.00000E+000	7.11900E-001	-1.18155E-004	11	...........	-327.56
	2320	2321	7.03078E-001	9.31173E-002	0.00000E+000	7.03900E-001	-1.16238E-004	11	...........	-327.56
	2328	2329	6.95068E-001	9.14496E-002	0.00000E+000	6.95900E-001	-1.15521E-004	11	...........	-327.56
	2336	2337	6.87029E-001	8.97556E-002	0.00000E+000	6.87900E-001	-1.17371E-004	11	...........	-327.56
	2344	2345	6.78994E-001	8.85620E-002	0.00000E+000	6.79900E-001	-1.21671E-004	11	...........	-327.56
	2352	2353	6.71088E-001	8.77624E-002	0.00000E+000	6.71900E-001	-1.17255E-004	11	...........	-327.56
	2360	2361	6.63056E-001	8.69587E-002	0.00000E+000	6.63900E-001	-1.17371E-004	11	...........	-327.56
	2368	2369	6.55040E-001	8.59603E-002	0.00000E+000	6.55900E-001	-1.19438E-004	11	...........	-327.56
	2376	2377	6.47121E-001	8.47342E-002	0.00000E+000	6.47900E-001	-1.18088E-004	11	...........	-327.56
	2384	2385	6.39068E-001	8.40051E-002	0.00000E+000	6.39900E-001	-1.18738E-004	11	...........	-327.56
	2392	2393	6.31050E-001	8.26484E-002	0.00000E+000	6.31900E-001	-1.20588E-004	11	...........	-327.56
	2400	2401	6.23141E-001	8.15563E-002	0.00000E+000	6.23900E-001	-1.17238E-004	11	...........	-327.56
	2408	2409	6.15107E-001	8.01996E-002	0.00000E+000	6.15900E-001	-1.15121E-004	11	...........	-327.56
	2416	2417	6.07118E-001	7.89565E-002	0.00000E+000	6.07900E-001	-1.19138E-004	11	...........	-327.56
	2424	2425	5.99174E-001	7.74008E-002	0.00000E+000	5.99900E-001	-1.17955E-004	11	...........	-327.56
	2432	2433	5.91168E-001	7.53883E-002	0.00000E+000	5.91900E-001	-1.17655E-004	11	...........	-327.56
	2440	2441	5.83130E-001	7.38170E-002	0.00000E+000	5.83900E-001	-1.17371E-004	11	...........	-327.56
	2448	2449	5.75196E-001	7.17830E-002	0.00000E+000	5.75900E-001	-1.19871E-004	11	...........	-327.56
	2456	2457	5.67197E-001	6.98452E-002	0.00000E+000	5.67900E-001	-1.19888E-004	11	...........	-327.56
	2464	2465	5.59167E-001	6.75999E-002	0.00000E+000	5.59900E-001	-1.20371E-004	11	...........	-327.56
	2472	2473	5.51123E-001	6.59433E-002	0.00000E+000	5.51900E-001	-1.20621E-004	11	...........	-327.56
	2480	2481	5.43239E-001	6.36303E-002	0.00000E+000	5.43900E-001	-1.21238E-004	11	...........	-327.56
	2488	2489	5.35193E-001	6.13164E-002	0.00000E+000	5.35900E-001	-1.18588E-004	11	...........	-327.56
	2496	2497	5.27165E-001	5.85815E-002	0.00000E+000	5.27900E-001	-1.18621E-004	11	...........	-327.56
	2504	2505	5.19246E-001	5.61158E-002	0.00000E+000	5.19900E-001	-1.20605E-004	11	...........	-327.56
	2512	2513	5.11277E-001	5.36078E-002	0.00000E+000	5.11900E-001	-1.20838E-004	11	...........	-327.56
	2520	2521	5.03263E-001	5.04630E-002	0.00000E+000	5.03900E-001	-1.17321E-004	11	...........	-327.56
	2528	2529	4.95353E-001	4.78861E-002	0.00000E+000	4.95900E-001	-1.21571E-004	11	...........	-327.56
	2536	2537	4.87325E-001	4.49807E-002	0.00000E+000	4.87900E-001	-1.21121E-004	11	...........	-327.56
	2544	2545	4.79303E-001	4.24356E-002	0.00000E+000	4.79900E-001	-1.21155E-004	11	...........	-327.56
	2552	2553	4.71360E-001	3.88121E-002	0.00000E+000	4.71900E-001	-1.21738E-004	11	...........	-327.56
	2560	2561	4.63374E-001	3.56772E-002	0.00000E+000	4.63900E-001	-1.20655E-004	11	...........	-327.56
	2568	2569	4.55361E-001	3.35038E-002	0.00000E+000	4.55900E-001	-1.23955E-004	11	...........	-327.56
	2576	2577	4.47391E-001	2.98569E-002	0.00000E+000	4.47900E-001	-1.23588E-004	11	...........	-327.56
	2584	2585	4.39410E-001	2.69843E-002	0.00000E+000	4.39900E-001	-1.20205E-004	11	...........	-327.56
	2592	2593	4.31107E-001	2.35389E-002	0.00000E+000	4.31900E-001	-1.14355E-004	10	...........	-327.56
	2600	2601	4.23102E-001	2.05706E-002	0.00000E+000	4.23900E-001	-1.17155E-004	10	...........	-327.56
	2608	2609	4.15234E-001	1.75817E-002	0.00000E+000	4.15900E-001	-1.21321E-004	10	...........	-327.56
	2616	2617	4.07234E-001	1.54052E-002	0.00000E+000	4.07900E-001	-1.19171E-004	10	...........	-327.56
	2624	2625	3.99221E-001	1.26057E-002	0.00000E+000	3.99900E-001	-1.22621E-004	10	...........	-327.56
	2632	2633	3.91355E-001	9.45142E-003	0.00000E+000	3.91900E-001	-1.20188E-004	10	...........	-327.56
	2640	2641	3.83358E-001	6.92697E-003	0.00000E+000	3.83900E-001	-1.21455E-004	10	...........	-327.56
	2648	2649	3.75382E-001	3.70477E-003	0.00000E+000	3.75900E-001	-1.20421E-004	10	...........	-327.56
	2656	2657	3.67464E-001	1.66617E-004	0.00000E+000	3.67900E-001	-1.22105E-004	9	...........	-327.56
	2664	2665	3.59886E-001	-2.85683E-003	0.00000E+000	3.59900E-001	-1.02955E-004	9	...........	-327.56
	2672	2673	3.51525E-001	-6.54093E-003	0.00000E+000	3.51900E-001	-1.22088E-004	10	...........	-327.56
	2680	2681	3.43646E-001	-1.04295E-002	0.00000E+000	3.43900E-001	-1.20655E-004	10	...........	-327.56
	2688	2689	3.35675E-001	-1.36841E-002	0.00000E+000	3.35900E-001	-1.18821E-004	10	...........	-327.56
	2696	2697	3.27699E-001	-1.72091E-002	0.00000E+000	3.27900E-001	-1.18688E-004	10	...........	-327.56
	2704	2705	3.19796E-001	-2.09999E-002	0.00000E+000	3.19900E-001	-1.11938E-004	10	...........	-327.56
	2712	2713	3.11860E-001	-2.47568E-002	0.00000E+000	3.11900E-001	-1.10638E-004	10	...........	-327.56
	2720	2721	3.03561E-001	-2.88809E-002	0.00000E+000	3.03900E-001	-1.21338E-004	11	...........	-327.56
	2728	2729	2.95535E-001	-3.28703E-002	0.00000E+000	2.95900E-001	-1.24921E-004	11	...........	-327.56
	2736	2737	2.87632E-001	-3.65471E-002	0.00000E+000	2.87900E-001	-1.21855E-004	11	...........	-327.56
	2744	2745	2.79596E-001	-4.04290E-002	0.00000E+000	2.79900E-001	-1.24905E-004	11	...........	-327.56
	2752	2753	2.71568E-001	-4.47080E-002	0.00000E+000	2.71900E-001	-1.24605E-004	11	...........	-327.56
	2760	2761	2.63673E-001	-4.85229E-002	0.00000E+000	2.63900E-001	-1.22788E-004	11	...........	-327.56
	2768	2769	2.55641E-001	-5.21250E-002	0.00000E+000	2.55900E-001	-1.23205E-004	11	...........	-327.56
	2776	2777	2.47630E-001	-5.32431E-002	0.00000E+000	2.47900E-001	-1.25038E-004	11	...........	-327.56
	2784	2785	2.39719E-001	-5.45726E-002	0.00000E+000	2.39900E-001	-1.21855E-004	11	...........	-327.56
	2792	2793	2.31681E-001	-5.51205E-002	0.00000E+000	2.31900E-001	-1.24771E-004	11	...........	-327.56
	2800	2801	2.23631E-001	-5.56800E-002	0.00000E+000	2.23900E-001	-1.22621E-004	11	...........	-327.56
	2808	2809	2.15724E-001	-5.58368E-002	0.00000E+000	2.15900E-001	-1.22305E-004	11	...........	-327.56
	2816	2817	2.07713E-001	-5.59493E-002	0.00000E+000	2.07900E-001	-1.25338E-004	11	...........	-327.56
	2824	2825	1.99710E-001	-5.61432E-002	0.00000E+000	1.99900E-001	-1.22255E-004	11	...........	-327.56
	2832	2833	1.91750E-001	-5.67908E-002	0.00000E+000	1.91900E-001	-1.22621E-004	11	...........	-327.56
	2840	2841	1.83771E-001	-5.79758E-002	0.00000E+000	1.83900E-001	-1.22788E-004	11	...........	-327.56
	2848	2849	1.75717E-001	-6.01797E-002	0.00000E+000	1.75900E-001	-1.22438E-004	11	...........	-327.56
	2856	2857	1.67710E-001	-6.33838E-002	0.00000E+000	1.67900E-001	-1.26988E-004	11	...........	-327.56
	2864	2865	1.59797E-001	-6.70178E-002	0.00000E+000	1.59900E-001	-1.22355E-004	11	...........	-327.56
	2872	2873	1.51779E-001	-7.06453E-002	0.00000E+000	1.51900E-001	-1.25371E-004	11	...........	-327.56
	2880	2881	1.43795E-001	-7.42555E-002	0.00000E+000	1.43900E-001	-1.26005E-004	11	...........	-327.56
	2888	2889	1.35844E-001	-7.75764E-002	0.00000E+000	1.35900E-001	-1.22721E-004	11	...........	-327.56
	2896	2897	1.27824E-001	-8.05399E-002	0.00000E+000	1.27900E-001	-1.25805E-004	11	...........	-327.56
	2904	2905	1.19850E-001	-8.37502E-002	0.00000E+000	1.19900E-001	-1.24471E-004	11	...........	-327.56
	2912	2913	1.11860E-001	-8.60636E-002	0.00000E+000	1.11900E-001	-1.22521E-004	11	...........	-327.56
	2920	2921	1.03877E-001	-8.84873E-002	0.00000E+000	1.03900E-001	-1.24621E-004	11	...........	-327.56
	2928	2929	9.59131E-002	-8.98691E-002	0.00000E+000	9.59000E-002	-1.24538E-004	11	...........	-327.56
	2936	2937	8.79243E-002	-8.93828E-002	0.00000E+000	8.79000E-002	-1.23405E-004	11	...........	-327.56
	2944	2945	7.99212E-002	-8.84972E-002	0.00000E+000	7.99000E-002	-1.24921E-004	11	...........	-327.56
	2952	2953	7.19188E-002	-8.78268E-002	0.00000E+000	7.19000E-002	-1.25205E-004	11	...........	-327.56
	2960	2961	6.39187E-002	-8.67991E-002	0.00000E+000	6.39000E-002	-1.21871E-004	11	...........	-327.56
	2968	2969	5.59333E-002	-8.40099E-002	0.00000E+000	5.59000E-002	-1.25221E-004	11	...........	-327.56
	2976	2977	4.79159E-002	-8.06697E-002	0.00000E+000	4.79000E-002	-1.22371E-004	11	...........	-327.56
	2984	2985	3.99224E-002	-7.77908E-002	0.00000E+000	3.99000E-002	-1.23138E-004	11	...........	-327.56
	2992	2993	3.19353E-002	-7.53676E-002	0.00000E+000	3.19000E-002	-1.25205E-004	11	...........	-327.56
[...]
	9545	9546	7.19909E-001	6.33727E-001	0.00000E+000	7.21000E-001	-1.27721E-004	12	...........	-327.56
	9550	9551	7.24900E-001	6.24208E-001	0.00000E+000	7.26000E-001	-1.29255E-004	12	...........	-327.56
	9555	9556	7.29807E-001	6.16077E-001	0.00000E+000	7.31000E-001	-1.28021E-004	12	...........	-327.56
	9560	9561	7.34832E-001	6.08667E-001	0.00000E+000	7.36000E-001	-1.23655E-004	12	...........	-327.56
	9565	9566	7.39854E-001	5.98443E-001	0.00000E+000	7.41000E-001	-1.25355E-004	12	...........	-327.56
	9570	9571	7.44890E-001	5.90300E-001	0.00000E+000	7.46000E-001	-1.31438E-004	12	...........	-327.56
	9575	9576	7.49905E-001	5.81235E-001	0.00000E+000	7.51000E-001	-1.30505E-004	12	...........	-327.56
	9580	9581	7.54923E-001	5.71102E-001	0.00000E+000	7.56000E-001	-1.24605E-004	12	...........	-327.56
	9585	9586	7.59922E-001	5.63867E-001	0.00000E+000	7.61000E-001	-1.28655E-004	12	...........	-327.56
	9590	9591	7.64867E-001	5.53732E-001	0.00000E+000	7.66000E-001	-1.28055E-004	12	...........	-327.56
	9595	9596	7.69907E-001	5.41736E-001	0.00000E+000	7.71000E-001	-1.27721E-004	12	...........	-327.56
	9600	9601	7.74932E-001	5.29887E-001	0.00000E+000	7.76000E-001	-1.27588E-004	12	...........	-327.56
	9605	9606	7.79918E-001	5.13999E-001	0.00000E+000	7.81000E-001	-1.28321E-004	12	...........	-327.56
	9610	9611	7.84877E-001	5.04595E-001	0.00000E+000	7.86000E-001	-1.28438E-004	12	...........	-327.56
	9615	9616	7.89878E-001	4.93108E-001	0.00000E+000	7.91000E-001	-1.27821E-004	12	...........	-327.56
	9620	9621	7.94965E-001	4.81401E-001	0.00000E+000	7.96000E-001	-1.28038E-004	12	...........	-327.56
	9625	9626	7.99945E-001	4.74049E-001	0.00000E+000	8.01000E-001	-1.29271E-004	12	...........	-327.56
	9630	9631	8.04967E-001	4.60890E-001	0.00000E+000	8.06000E-001	-1.28105E-004	12	...........	-327.56
	9635	9636	8.09884E-001	4.48264E-001	0.00000E+000	8.11000E-001	-1.28888E-004	12	...........	-327.56
	9640	9641	8.14921E-001	4.35186E-001	0.00000E+000	8.16000E-001	-1.28221E-004	12	...........	-327.56
	9645	9646	8.19903E-001	4.25289E-001	0.00000E+000	8.21000E-001	-1.25855E-004	12	...........	-327.56
	9650	9651	8.24951E-001	4.12350E-001	0.00000E+000	8.26000E-001	-1.31188E-004	12	...........	-327.56
	9655	9656	8.29922E-001	4.00495E-001	0.00000E+000	8.31000E-001	-1.29221E-004	12	...........	-327.56
	9660	9661	8.34871E-001	3.92161E-001	0.00000E+000	8.36000E-001	-1.28488E-004	12	...........	-327.56
	9665	9666	8.39940E-001	3.79805E-001	0.00000E+000	8.41000E-001	-1.27388E-004	12	...........	-327.56
	9670	9671	8.44931E-001	3.69235E-001	0.00000E+000	8.46000E-001	-1.30771E-004	12	...........	-327.56
	9675	9676	8.49946E-001	3.57695E-001	0.00000E+000	8.51000E-001	-1.27338E-004	12	...........	-327.56
	9680	9681	8.54979E-001	3.51874E-001	0.00000E+000	8.56000E-001	-1.24255E-004	12	...........	-327.56
	9685	9686	8.59884E-001	3.40508E-001	0.00000E+000	8.61000E-001	-1.25988E-004	12	...........	-327.56
	9690	9691	8.64916E-001	3.32478E-001	0.00000E+000	8.66000E-001	-1.30588E-004	12	...........	-327.56
	9695	9696	8.69917E-001	3.24465E-001	0.00000E+000	8.71000E-001	-1.29638E-004	12	...........	-327.56
	9700	9701	8.74974E-001	3.14534E-001	0.00000E+000	8.76000E-001	-1.26321E-004	12	...........	-327.56
	9705	9706	8.79963E-001	3.08181E-001	0.00000E+000	8.81000E-001	-1.29255E-004	12	...........	-327.56
	9710	9711	8.84894E-001	3.03192E-001	0.00000E+000	8.86000E-001	-1.27838E-004	12	...........	-327.56
	9715	9716	8.89911E-001	2.95826E-001	0.00000E+000	8.91000E-001	-1.29688E-004	12	...........	-327.56
	9720	9721	8.94926E-001	2.91350E-001	0.00000E+000	8.96000E-001	-1.26355E-004	12	...........	-327.56
	9725	9726	8.99949E-001	2.85275E-001	0.00000E+000	9.01000E-001	-1.28855E-004	12	...........	-327.56
	9730	9731	9.04978E-001	2.80091E-001	0.00000E+000	9.06000E-001	-1.29155E-004	12	...........	-327.56
	9735	9736	9.09893E-001	2.74992E-001	0.00000E+000	9.11000E-001	-1.34955E-004	12	...........	-327.56
	9740	9741	9.14947E-001	2.70507E-001	0.00000E+000	9.16000E-001	-1.29671E-004	12	...........	-327.56
	9745	9746	9.19942E-001	2.66616E-001	0.00000E+000	9.21000E-001	-1.30255E-004	12	...........	-327.56
	9750	9751	9.24928E-001	2.63710E-001	0.00000E+000	9.26000E-001	-1.26905E-004	12	...........	-327.56
	9755	9756	9.29948E-001	2.60149E-001	0.00000E+000	9.31000E-001	-1.28421E-004	12	...........	-327.56
	9760	9761	9.34821E-001	2.56263E-001	0.00000E+000	9.36000E-001	-1.27155E-004	12	...........	-327.56
	9765	9766	9.39860E-001	2.53031E-001	0.00000E+000	9.41000E-001	-1.29455E-004	12	...........	-327.56
	9770	9771	9.44883E-001	2.50490E-001	0.00000E+000	9.46000E-001	-1.30638E-004	12	...........	-327.56
	9775	9776	9.49907E-001	2.48130E-001	0.00000E+000	9.51000E-001	-1.28821E-004	12	...........	-327.56
	9780	9781	9.54935E-001	2.44646E-001	0.00000E+000	9.56000E-001	-1.28455E-004	12	...........	-327.56
	9785	9786	9.59917E-001	2.42550E-001	0.00000E+000	9.61000E-001	-1.27738E-004	12	...........	-327.56
	9790	9791	9.64683E-001	2.39572E-001	0.00000E+000	9.66000E-001	-1.26888E-004	11	...........	-327.56
	9795	9796	9.69612E-001	2.37002E-001	0.00000E+000	9.71000E-001	-1.25888E-004	11	...........	-327.56
	9800	9801	9.74647E-001	2.34756E-001	0.00000E+000	9.76000E-001	-1.25471E-004	11	...........	-327.56
	9805	9806	9.79650E-001	2.32191E-001	0.00000E+000	9.81000E-001	-1.22938E-004	11	...........	-327.56
	9810	9811	9.84674E-001	2.31004E-001	0.00000E+000	9.86000E-001	-1.24571E-004	11	...........	-327.56
	9815	9816	9.89585E-001	2.29068E-001	0.00000E+000	9.91000E-001	-1.23855E-004	11	...........	-327.56
	9820	9821	9.94614E-001	2.26981E-001	0.00000E+000	9.96000E-001	-1.28655E-004	11	...........	-327.56
	9825	9826	9.99635E-001	2.25517E-001	0.00000E+000	1.00100E+000	-1.26705E-004	11	...........	-327.56
	9830	9831	1.00468E+000	2.23862E-001	0.00000E+000	1.00600E+000	-1.27488E-004	11	...........	-327.56
	9835	9836	1.00968E+000	2.22080E-001	0.00000E+000	1.01100E+000	-1.28621E-004	11	...........	-327.56
	9840	9841	1.01460E+000	2.20320E-001	0.00000E+000	1.01600E+000	-1.25371E-004	11	...........	-327.56
	9845	9846	1.01960E+000	2.19388E-001	0.00000E+000	1.02100E+000	-1.28405E-004	11	...........	-327.56
	9850	9851	1.02460E+000	2.17623E-001	0.00000E+000	1.02600E+000	-1.24305E-004	11	...........	-327.56
	9855	9856	1.02962E+000	2.17713E-001	0.00000E+000	1.03100E+000	-1.26238E-004	11	...........	-327.56
	9860	9861	1.03462E+000	2.31126E-001	0.00000E+000	1.03600E+000	-1.27505E-004	11	...........	-327.56
	9865	9866	1.03954E+000	2.32998E-001	0.00000E+000	1.04100E+000	-1.24321E-004	11	...........	-327.56
	9870	9871	1.04457E+000	2.38570E-001	0.00000E+000	1.04600E+000	-1.22171E-004	11	...........	-327.56
	9875	9876	1.04956E+000	2.33929E-001	0.00000E+000	1.05100E+000	-1.28455E-004	11	...........	-327.56
	9880	9881	1.05462E+000	2.33231E-001	0.00000E+000	1.05600E+000	-1.25571E-004	11	...........	-327.56
	9885	9886	1.05960E+000	2.34526E-001	0.00000E+000	1.06100E+000	-1.24771E-004	11	...........	-327.56
	9890	9891	1.06451E+000	2.35148E-001	0.00000E+000	1.06600E+000	-1.25821E-004	11	...........	-327.56
	9895	9896	1.06951E+000	2.37278E-001	0.00000E+000	1.07100E+000	-1.22805E-004	11	...........	-327.56
	9900	9901	1.07456E+000	2.39185E-001	0.00000E+000	1.07600E+000	-1.27621E-004	11	...........	-327.56
	9905	9906	1.07956E+000	2.42277E-001	0.00000E+000	1.08100E+000	-1.27721E-004	11	...........	-327.56
	9910	9911	1.08455E+000	2.54604E-001	0.00000E+000	1.08600E+000	-1.21005E-004	11	...........	-327.56
	9915	9916	1.08952E+000	2.59798E-001	0.00000E+000	1.09100E+000	-1.26055E-004	11	...........	-327.56
	9920	9921	1.09448E+000	2.62851E-001	0.00000E+000	1.09600E+000	-1.28221E-004	11	...........	-327.56
	9925	9926	1.09948E+000	2.68088E-001	0.00000E+000	1.10100E+000	-1.24105E-004	11	...........	-327.56
	9930	9931	1.10478E+000	2.79135E-001	0.00000E+000	1.10600E+000	-1.30455E-004	12	...........	-327.56
	9935	9936	1.10980E+000	2.83838E-001	0.00000E+000	1.11100E+000	-1.29738E-004	12	...........	-327.56
	9940	9941	1.11468E+000	2.89736E-001	0.00000E+000	1.11600E+000	-1.27671E-004	12	...........	-327.56
	9945	9946	1.11976E+000	2.96026E-001	0.00000E+000	1.12100E+000	-1.28238E-004	12	...........	-327.56
	9950	9951	1.12474E+000	3.03754E-001	0.00000E+000	1.12600E+000	-1.31138E-004	12	...........	-327.56
	9955	9956	1.12970E+000	3.11615E-001	0.00000E+000	1.13100E+000	-1.27521E-004	12	...........	-327.56
	9960	9961	1.13471E+000	3.20050E-001	0.00000E+000	1.13600E+000	-1.29021E-004	12	...........	-327.56
	9965	9966	1.13959E+000	3.30741E-001	0.00000E+000	1.14100E+000	-1.28038E-004	12	...........	-327.56
	9970	9971	1.14463E+000	3.38966E-001	0.00000E+000	1.14600E+000	-1.26838E-004	12	...........	-327.56
	9975	9976	1.14964E+000	3.47781E-001	0.00000E+000	1.15100E+000	-1.27071E-004	12	...........	-327.56
	9980	9981	1.15466E+000	3.58091E-001	0.00000E+000	1.15600E+000	-1.28505E-004	12	...........	-327.56
	9985	9986	1.15966E+000	3.67277E-001	0.00000E+000	1.16100E+000	-1.28521E-004	12	...........	-327.56
	9990	9991	1.16467E+000	3.76916E-001	0.00000E+000	1.16600E+000	-1.26621E-004	12	...........	-327.56
	9995	9996	1.16957E+000	3.86735E-001	0.00000E+000	1.17100E+000	-1.30988E-004	12	...........	-327.56
	10000	10001	1.17459E+000	3.99721E-001	0.00000E+000	1.17600E+000	-1.28638E-004	12	...........	-327.56
	10005	10006	1.17958E+000	4.08765E-001	0.00000E+000	1.18100E+000	-1.28055E-004	12	...........	-327.56
	10010	10011	1.18461E+000	4.19422E-001	0.00000E+000	1.18600E+000	-1.24205E-004	12	...........	-327.56
	10015	10016	1.18959E+000	4.35183E-001	0.00000E+000	1.19100E+000	-1.29255E-004	12	...........	-327.56
	10020	10021	1.19453E+000	4.50747E-001	0.00000E+000	1.19600E+000	-1.30438E-004	12	...........	-327.56
	10025	10026	1.19952E+000	4.58486E-001	0.00000E+000	1.20100E+000	-1.29988E-004	12	...........	-327.56
	10030	10031	1.20456E+000	4.68710E-001	0.00000E+000	1.20600E+000	-1.30338E-004	12	...........	-327.56
	10035	10036	1.20955E+000	4.88272E-001	0.00000E+000	1.21100E+000	-1.30188E-004	12	...........	-327.56
	10040	10041	1.21454E+000	5.00443E-001	0.00000E+000	1.21600E+000	-1.28571E-004	12	...........	-327.56
	10045	10046	1.21945E+000	5.11134E-001	0.00000E+000	1.22100E+000	-1.28705E-004	12	...........	-327.56
	10050	10051	1.22446E+000	5.14524E-001	0.00000E+000	1.22600E+000	-1.27171E-004	12	...........	-327.56
	10055	10056	1.22950E+000	5.27031E-001	0.00000E+000	1.23100E+000	-1.25938E-004	12	...........	-327.56
	10060	10061	1.23450E+000	5.36748E-001	0.00000E+000	1.23600E+000	-1.30788E-004	12	...........	-327.56
	10065	10066	1.23949E+000	5.46499E-001	0.00000E+000	1.24100E+000	-1.30155E-004	12	...........	-327.56
	10070	10071	1.24441E+000	5.51480E-001	0.00000E+000	1.24600E+000	-1.26738E-004	12	...........	-327.56
	10075	10076	1.24949E+000	5.72406E-001	0.00000E+000	1.25100E+000	-1.30788E-004	12	...........	-327.56
	10080	10081	1.25442E+000	5.97580E-001	0.00000E+000	1.25600E+000	-1.27105E-004	12	...........	-327.56
	10085	10086	1.25947E+000	5.86813E-001	0.00000E+000	1.26100E+000	-1.27571E-004	12	...........	-327.56
	10090	10091	1.26447E+000	5.92431E-001	0.00000E+000	1.26600E+000	-1.26221E-004	12	...........	-327.56
	10095	10096	1.26939E+000	5.94010E-001	0.00000E+000	1.27100E+000	-1.25688E-004	12	...........	-327.56
	10100	10101	1.27436E+000	6.02698E-001	0.00000E+000	1.27600E+000	-1.27721E-004	12	...........	-327.56
	10105	10106	1.27938E+000	6.22919E-001	0.00000E+000	1.28100E+000	-1.28155E-004	12	...........	-327.56
	10110	10111	1.28439E+000	6.43458E-001	0.00000E+000	1.28600E+000	-1.27188E-004	12	...........	-327.56
	10115	10116	1.28941E+000	6.51835E-001	0.00000E+000	1.29100E+000	-1.23105E-004	12	...........	-327.56
	10120	10121	1.29434E+000	6.59662E-001	0.00000E+000	1.29600E+000	-1.27821E-004	12	...........	-327.56
	10125	10126	1.29935E+000	6.86589E-001	0.00000E+000	1.30100E+000	-1.30755E-004	12	...........	-327.56
	10130	10131	1.30429E+000	7.27194E-001	0.00000E+000	1.30600E+000	-1.26921E-004	12	...........	-327.56
	10135	10136	1.30932E+000	7.29369E-001	0.00000E+000	1.31100E+000	-1.23571E-004	12	...........	-327.56
	10140	10141	1.31431E+000	7.75648E-001	0.00000E+000	1.31600E+000	-1.22821E-004	12	...........	-327.56
	10145	10146	1.31920E+000	7.81463E-001	0.00000E+000	1.32100E+000	-1.31371E-004	12	...........	-327.56
	10150	10151	1.32423E+000	7.91285E-001	0.00000E+000	1.32600E+000	-1.28255E-004	12	...........	-327.56
	10155	10156	1.32921E+000	8.48643E-001	0.00000E+000	1.33100E+000	-1.25571E-004	12	...........	-327.56
	10160	10161	1.33424E+000	8.17598E-001	0.00000E+000	1.33600E+000	-1.26505E-004	12	...........	-327.56
	10165	10166	1.33917E+000	8.48233E-001	0.00000E+000	1.34100E+000	-1.24771E-004	12	...........	-327.56
	10170	10171	1.34416E+000	8.59672E-001	0.00000E+000	1.34600E+000	-1.26921E-004	12	...........	-327.56
	10175	10176	1.34915E+000	8.42696E-001	0.00000E+000	1.35100E+000	-1.26988E-004	12	...........	-327.56
	10180	10181	1.35412E+000	9.08385E-001	0.00000E+000	1.35600E+000	-1.23588E-004	12	...........	-327.56
	10185	10186	1.35912E+000	9.21072E-001	0.00000E+000	1.36100E+000	-1.24921E-004	12	...........	-327.56
	10190	10191	1.36414E+000	9.30430E-001	0.00000E+000	1.36600E+000	-1.26655E-004	12	...........	-327.56
	10195	10196	1.36906E+000	9.99426E-001	0.00000E+000	1.37100E+000	-1.28571E-004	12	...........	-327.56
	10200	10201	1.37403E+000	9.79802E-001	0.00000E+000	1.37600E+000	-1.26588E-004	12	...........	-327.56
	10205	10206	1.37905E+000	1.03515E+000	0.00000E+000	1.38100E+000	-1.27438E-004	12	...........	-327.56
	10210	10211	1.38404E+000	1.01957E+000	0.00000E+000	1.38600E+000	-1.27271E-004	12	...........	-327.56
	10215	10216	1.38906E+000	1.01299E+000	0.00000E+000	1.39100E+000	-1.28055E-004	12	...........	-327.56
	10220	10221	1.39406E+000	1.04284E+000	0.00000E+000	1.39600E+000	-1.28171E-004	12	...........	-327.56
	10225	10226	1.39899E+000	1.01362E+000	0.00000E+000	1.40100E+000	-1.25821E-004	12	...........	-327.56
	10230	10231	1.40397E+000	1.03975E+000	0.00000E+000	1.40600E+000	-1.23155E-004	12	...........	-327.56
	10235	10236	1.40901E+000	1.05992E+000	0.00000E+000	1.41100E+000	-1.28038E-004	12	...........	-327.56
	10240	10241	1.41400E+000	1.08677E+000	0.00000E+000	1.41600E+000	-1.26921E-004	12	...........	-327.56
	10245	10246	1.41903E+000	1.11911E+000	0.00000E+000	1.42100E+000	-1.23771E-004	12	...........	-327.56
	10250	10251	1.42395E+000	1.08779E+000	0.00000E+000	1.42600E+000	-1.27471E-004	12	...........	-327.56
	10255	10256	1.42895E+000	1.12503E+000	0.00000E+000	1.43100E+000	-1.27605E-004	12	...........	-327.56
	10260	10261	1.43393E+000	1.15186E+000	0.00000E+000	1.43600E+000	-1.27771E-004	12	...........	-327.56
	10265	10266	1.43892E+000	1.17677E+000	0.00000E+000	1.44100E+000	-1.22655E-004	12	...........	-327.56
	10270	10271	1.44390E+000	1.20469E+000	0.00000E+000	1.44600E+000	-1.22871E-004	12	...........	-327.56
	10275	10276	1.44881E+000	1.20574E+000	0.00000E+000	1.45100E+000	-1.26288E-004	12	...........	-327.56
	10280	10281	1.45383E+000	1.24870E+000	0.00000E+000	1.45600E+000	-1.28788E-004	12	...........	-327.56
	10285	10286	1.45878E+000	1.32214E+000	0.00000E+000	1.46100E+000	-1.27238E-004	12	...........	-327.56
	10290	10291	1.46387E+000	1.31779E+000	0.00000E+000	1.46600E+000	-1.25705E-004	12	...........	-327.56
	10295	10296	1.46887E+000	1.30557E+000	0.00000E+000	1.47100E+000	-1.29271E-004	12	...........	-327.56
	10300	10301	1.47379E+000	1.26237E+000	0.00000E+000	1.47600E+000	-1.29538E-004	12	...........	-327.56
	10305	10306	1.47880E+000	1.23696E+000	0.00000E+000	1.48100E+000	-1.25638E-004	12	...........	-327.56
	10310	10311	1.48384E+000	1.23966E+000	0.00000E+000	1.48600E+000	-1.25171E-004	12	...........	-327.56
	10315	10316	1.48882E+000	1.30116E+000	0.00000E+000	1.49100E+000	-1.28471E-004	12	...........	-327.56
	10320	10321	1.49381E+000	1.37035E+000	0.00000E+000	1.49600E+000	-1.26071E-004	12	...........	-327.56
	10325	10326	1.49870E+000	1.42673E+000	0.00000E+000	1.50100E+000	-1.30221E-004	12	...........	-327.56
	10330	10331	1.50380E+000	1.34163E+000	0.00000E+000	1.50600E+000	-1.26488E-004	12	...........	-327.56
	10335	10336	1.50873E+000	1.46398E+000	0.00000E+000	1.51100E+000	-1.27188E-004	12	...........	-327.56
	10340	10341	1.51375E+000	1.45577E+000	0.00000E+000	1.51600E+000	-1.28088E-004	12	...........	-327.56
	10345	10346	1.51876E+000	1.47941E+000	0.00000E+000	1.52100E+000	-1.24205E-004	12	...........	-327.56
	10350	10351	1.52368E+000	1.45141E+000	0.00000E+000	1.52600E+000	-1.26621E-004	12	...........	-327.56
	10355	10356	1.52869E+000	1.46154E+000	0.00000E+000	1.53100E+000	-1.26755E-004	12	...........	-327.56
	10360	10361	1.53369E+000	1.51366E+000	0.00000E+000	1.53600E+000	-1.27721E-004	12	...........	-327.56
	10365	10366	1.53868E+000	1.50152E+000	0.00000E+000	1.54100E+000	-1.25738E-004	12	...........	-327.56
	10370	10371	1.54367E+000	1.50589E+000	0.00000E+000	1.54600E+000	-1.26505E-004	12	...........	-327.56
	10375	10376	1.54869E+000	1.51066E+000	0.00000E+000	1.55100E+000	-1.25038E-004	12	...........	-327.56
	10380	10381	1.55359E+000	1.53858E+000	0.00000E+000	1.55600E+000	-1.26488E-004	12	...........	-327.56
	10385	10386	1.55861E+000	1.56236E+000	0.00000E+000	1.56100E+000	-1.26321E-004	12	...........	-327.56
	10390	10391	1.56362E+000	1.60418E+000	0.00000E+000	1.56600E+000	-1.25255E-004	12	...........	-327.56
	10395	10396	1.56862E+000	1.63262E+000	0.00000E+000	1.57100E+000	-1.22805E-004	12	...........	-327.56
	10400	10401	1.57363E+000	1.64280E+000	0.00000E+000	1.57600E+000	-1.29738E-004	12	...........	-327.56
	10405	10406	1.57857E+000	1.64163E+000	0.00000E+000	1.58100E+000	-1.28771E-004	12	...........	-327.56
	10410	10411	1.58355E+000	1.62881E+000	0.00000E+000	1.58600E+000	-1.28855E-004	12	...........	-327.56
	10415	10416	1.58864E+000	1.65018E+000	0.00000E+000	1.59100E+000	-1.27388E-004	12	...........	-327.56
	10420	10421	1.59359E+000	1.64426E+000	0.00000E+000	1.59600E+000	-1.29671E-004	12	...........	-327.56
	10425	10426	1.59861E+000	1.67296E+000	0.00000E+000	1.60100E+000	-1.29938E-004	12	...........	-327.56
	10430	10431	1.60352E+000	1.67682E+000	0.00000E+000	1.60600E+000	-1.27905E-004	12	...........	-327.56
	10435	10436	1.60854E+000	1.68835E+000	0.00000E+000	1.61100E+000	-1.25871E-004	12	...........	-327.56
	10440	10441	1.61353E+000	1.70064E+000	0.00000E+000	1.61600E+000	-1.22888E-004	12	...........	-327.56
	10445	10446	1.61859E+000	1.68934E+000	0.00000E+000	1.62100E+000	-1.27005E-004	12	...........	-327.56
	10450	10451	1.62357E+000	1.69650E+000	0.00000E+000	1.62600E+000	-1.27021E-004	12	...........	-327.56
	10455	10456	1.62850E+000	1.71437E+000	0.00000E+000	1.63100E+000	-1.28021E-004	12	...........	-327.56
	10460	10461	1.63354E+000	1.74512E+000	0.00000E+000	1.63600E+000	-1.27805E-004	12	...........	-327.56
	10465	10466	1.63850E+000	1.77342E+000	0.00000E+000	1.64100E+000	-1.27238E-004	12	...........	-327.56
	10470	10471	1.64351E+000	1.76932E+000	0.00000E+000	1.64600E+000	-1.24788E-004	12	...........	-327.56
	10475	10476	1.64852E+000	1.78294E+000	0.00000E+000	1.65100E+000	-1.24555E-004	12	...........	-327.56
	10480	10481	1.65342E+000	1.80004E+000	0.00000E+000	1.65600E+000	-1.27655E-004	12	...........	-327.56
	10485	10486	1.65843E+000	1.82555E+000	0.00000E+000	1.66100E+000	-1.25921E-004	12	...........	-327.56
	10490	10491	1.66344E+000	1.86356E+000	0.00000E+000	1.66600E+000	-1.24105E-004	12	...........	-327.56
	10495	10496	1.66847E+000	1.89830E+000	0.00000E+000	1.67100E+000	-1.22871E-004	12	...........	-327.56
	10500	10501	1.67348E+000	1.91927E+000	0.00000E+000	1.67600E+000	-1.23971E-004	12	...........	-327.56
	10505	10506	1.67837E+000	1.93556E+000	0.00000E+000	1.68100E+000	-1.26221E-004	12	...........	-327.56
	10510	10511	1.68342E+000	1.92859E+000	0.00000E+000	1.68600E+000	-1.24938E-004	12	...........	-327.56
	10515	10516	1.68841E+000	1.93615E+000	0.00000E+000	1.69100E+000	-1.25721E-004	12	...........	-327.56
	10520	10521	1.69344E+000	1.96560E+000	0.00000E+000	1.69600E+000	-1.21838E-004	12	...........	-327.56
	10524	10525	1.69746E+000	1.97583E+000	0.00000E+000	1.70000E+000	-1.25771E-004	12	...........	-327.56