File: testing/data/240902_15_MCL13_cswWE_CV2_750C_CO2_post.DTA
EXPLAIN
TAG	CV
TITLE	LABEL	Cyclic Voltammetry	Test Identifier
DATE	LABEL	9/3/2024	Date
TIME	LABEL	14:43:30	Time
NOTES	NOTES	5	Notes...
	cswWE - carbon steel wire
cspWE - carbon steel plate 2x2 tapered

Carbon steel plate counter electrode
Carbon steel wire reference electrode
PSTAT	PSTAT	REF3000-48128	Potentiostat
VINIT	POTEN	0.00000E+000	T	Initial E (V)
VLIMIT1	POTEN	1.70000E+000	F	Scan Limit 1 (V)
VLIMIT2	POTEN	-1.00000E+000	F	Scan Limit 2 (V)
VFINAL	POTEN	1.70000E+000	F	Final E (V)
SCANRATE	QUANT	2.00000E+000	Scan Rate (mV/s)
STEPSIZE	QUANT	1.00000E+000	Step Size (mV)
CYCLES	IQUANT	2	Cycles (#)
IMODE	SELECTOR	0	I/E Range Mode
IRANGE	QUANT	3.00000E-001	Max Current (mA)
AREA	QUANT	1.00000E+000	Sample Area (cm^2)
EQDELAY	QUANT	0.00000E+000	Equil. Time (s)
IRCOMP	SELECTOR	0	IRComp
PFCOR	QUANT	5.00000E+001	PF Corr. (ohm)
SAMPLINGMODE	SELECTOR	1	Sampling Mode
EOC	QUANT	0.2475526	Open Circuit (V)
ELECTRODETYPE	SELECTOR	0	Electrode Type
STRIPPING	TOGGLE	F	Used for Stripping
SEQUENCER	TOGGLE	TRUE	Run as Sequence
PSTATMODEL	IQUANT	5	Pstat Model
PSTATSECTION	LABEL	REF3000-48128	Pstat Section
PSTATSERIALNO	LABEL	48128	Pstat Serial Number
CTRLMODE	IQUANT	1	Control Mode
ELECTROMETER	IQUANT	0	RE=0 or CS=1
IESTAB	IQUANT	2	I/E Stability
CASPEED	IQUANT	4	Control Amp Speed
CONVENTION	IQUANT	1	Current Convention
ICHRANGE	IQUANT	2	Ich Range
ICHRANGEMODE	TOGGLE	F	Ich Auto Range
ICHOFFSETENABLE	TOGGLE	F	Ich Offset Enable
ICHOFFSET	QUANT	0	Ich Offset (V)
ICHFILTER	IQUANT	3	Ich Filter
VCHRANGE	IQUANT	2	Vch Range
VCHRANGEMODE	TOGGLE	F	Vch Auto Range
VCHOFFSETENABLE	TOGGLE	F	Vch Offset Enable
VCHOFFSET	QUANT	0	Vch Offset (V)
VCHFILTER	IQUANT	3	Vch Filter
ACHRANGE	IQUANT	2	Ach Range
ACHOFFSETENABLE	TOGGLE	F	Ach Offset Enable
ACHOFFSET	QUANT	0	Ach Offset (V)
ACHFILTER	IQUANT	1	Ach Filter
IERANGELOWERLIMIT	IQUANT	2	I/E Range Lower Limit
IERANGEMODE	TOGGLE	T	I/E AutoRange
IERANGE	IQUANT	9	I/E Range
POSFEEDENABLE	TOGGLE	F	Positive Feedback IR Comp
POSFEEDRESISTANCE	QUANT	0	Positive Feedback Resistance (ohm)
ACHSELECT	IQUANT	4	Ach Select
SENSECABLEID	IQUANT	14	Sense Cable ID
PWRCABLEID	IQUANT	7	Power Cable ID
DCCALDATE	LABEL	8/16/2024	DC Calibration Date
ACCALDATE	LABEL	8/16/2024	AC Calibration Date
THERMOSELECT	IQUANT	1	Thermo Select
FRAMEWORKVERSION	LABEL	7.10.3	Framework Version
INSTRUMENTVERSION	LABEL	4.91	Instrument Version
COMMVERSION	LABEL	5.10	Communications Version
CPUPLDVERSION	LABEL	6.00	CPU PLD Version
CTRLPLDVERSION	LABEL	3.21	CTRL PLD Version
PSTATPLDVERSION	LABEL	0.00	PSTAT PLD Version
COMPLIANCEVOLTAGE	IQUANT	0	Compliance Voltage
CURVE1	TABLE
	Pt	T	Vf	Im	Vu	Sig	Ach	IERange	Over	Temp
	#	s	V vs. Ref.	A	V	V	V	#	bits	deg C
	0	0.5	2.47171E-001	2.10633E-005	0.00000E+000	2.47550E-001	-1.11655E-004	9	...........	-327.56
	9	5	2.56147E-001	4.44984E-004	0.00000E+000	2.56550E-001	-1.13355E-004	9	...........	-327.56
	18	9.5	2.65091E-001	9.06976E-004	0.00000E+000	2.65550E-001	-1.11355E-004	9	...........	-327.56
	27	14	2.73970E-001	1.41861E-003	0.00000E+000	2.74550E-001	-1.11688E-004	9	...........	-327.56
	36	18.5	2.82991E-001	1.80264E-003	0.00000E+000	2.83550E-001	-1.10955E-004	9	...........	-327.56
	45	23	2.91949E-001	2.11587E-003	0.00000E+000	2.92550E-001	-1.20521E-004	9	...........	-327.56
	54	27.5	3.00843E-001	2.37130E-003	0.00000E+000	3.01550E-001	-1.21688E-004	9	...........	-327.56
	63	32	3.09799E-001	2.71161E-003	0.00000E+000	3.10550E-001	-1.18455E-004	9	...........	-327.56
	72	36.5	3.19111E-001	3.16400E-003	0.00000E+000	3.19550E-001	-1.20121E-004	10	...........	-327.56
	81	41	3.28052E-001	3.45576E-003	0.00000E+000	3.28550E-001	-1.22088E-004	10	...........	-327.56
	90	45.5	3.37091E-001	3.76038E-003	0.00000E+000	3.37550E-001	-1.22788E-004	10	...........	-327.56
	99	50	3.45992E-001	4.31127E-003	0.00000E+000	3.46550E-001	-1.23788E-004	10	...........	-327.56
	108	54.5	3.55071E-001	4.95442E-003	0.00000E+000	3.55550E-001	-1.21121E-004	10	...........	-327.56
	117	59	3.64042E-001	5.31449E-003	0.00000E+000	3.64550E-001	-1.23588E-004	10	...........	-327.56
	126	63.5	3.72955E-001	5.85929E-003	0.00000E+000	3.73550E-001	-1.21088E-004	10	...........	-327.56
	135	68	3.81975E-001	6.40675E-003	0.00000E+000	3.82550E-001	-1.24688E-004	10	...........	-327.56
	144	72.5	3.91023E-001	6.97856E-003	0.00000E+000	3.91550E-001	-1.22155E-004	10	...........	-327.56
	153	77	3.99943E-001	7.44628E-003	0.00000E+000	4.00550E-001	-1.22321E-004	10	...........	-327.56
	162	81.5	4.08968E-001	7.69236E-003	0.00000E+000	4.09550E-001	-1.22221E-004	10	...........	-327.56
	171	86	4.18009E-001	8.05307E-003	0.00000E+000	4.18550E-001	-1.21321E-004	10	...........	-327.56
	180	90.5	4.26966E-001	8.08757E-003	0.00000E+000	4.27550E-001	-1.21488E-004	10	...........	-327.56
	189	95	4.35960E-001	7.64407E-003	0.00000E+000	4.36550E-001	-1.18521E-004	10	...........	-327.56
	198	99.5	4.45010E-001	7.43920E-003	0.00000E+000	4.45550E-001	-1.19988E-004	10	...........	-327.56
	207	104	4.53932E-001	7.21238E-003	0.00000E+000	4.54550E-001	-1.21921E-004	10	...........	-327.56
	216	108.5	4.62963E-001	7.20523E-003	0.00000E+000	4.63550E-001	-1.23188E-004	10	...........	-327.56
	225	113	4.71968E-001	7.10803E-003	0.00000E+000	4.72550E-001	-1.21221E-004	10	...........	-327.56
	234	117.5	4.80924E-001	7.11445E-003	0.00000E+000	4.81550E-001	-1.21955E-004	10	...........	-327.56
	243	122	4.89953E-001	6.89296E-003	0.00000E+000	4.90550E-001	-1.21421E-004	10	...........	-327.56
	252	126.5	4.98966E-001	6.91546E-003	0.00000E+000	4.99550E-001	-1.20521E-004	10	...........	-327.56
	261	131	5.07896E-001	6.95356E-003	0.00000E+000	5.08550E-001	-1.20421E-004	10	...........	-327.56
	270	135.5	5.16900E-001	6.88595E-003	0.00000E+000	5.17550E-001	-1.22021E-004	10	...........	-327.56
	279	140	5.25804E-001	6.80199E-003	0.00000E+000	5.26550E-001	-1.22821E-004	10	...........	-327.56
	288	144.5	5.34853E-001	6.37490E-003	0.00000E+000	5.35550E-001	-1.18388E-004	10	...........	-327.56
	297	149	5.43918E-001	6.21985E-003	0.00000E+000	5.44550E-001	-1.21855E-004	10	...........	-327.56
	306	153.5	5.52802E-001	6.16252E-003	0.00000E+000	5.53550E-001	-1.23221E-004	10	...........	-327.56
	315	158	5.61844E-001	6.20583E-003	0.00000E+000	5.62550E-001	-1.19388E-004	10	...........	-327.56
	324	162.5	5.70883E-001	6.21089E-003	0.00000E+000	5.71550E-001	-1.20955E-004	10	...........	-327.56
	333	167	5.79810E-001	6.17684E-003	0.00000E+000	5.80550E-001	-1.25588E-004	10	...........	-327.56
	342	171.5	5.88824E-001	6.33713E-003	0.00000E+000	5.89550E-001	-1.23055E-004	10	...........	-327.56
	351	176	5.97857E-001	6.31279E-003	0.00000E+000	5.98550E-001	-1.18921E-004	10	...........	-327.56
	360	180.5	6.06791E-001	6.37309E-003	0.00000E+000	6.07550E-001	-1.22221E-004	10	...........	-327.56
	369	185	6.15861E-001	6.29528E-003	0.00000E+000	6.16550E-001	-1.19921E-004	10	...........	-327.56
	378	189.5	6.24835E-001	6.21146E-003	0.00000E+000	6.25550E-001	-1.21921E-004	10	...........	-327.56
	387	194	6.33793E-001	6.16225E-003	0.00000E+000	6.34550E-001	-1.24755E-004	10	...........	-327.56
	396	198.5	6.42803E-001	6.17893E-003	0.00000E+000	6.43550E-001	-1.19088E-004	10	...........	-327.56
	405	203	6.51829E-001	6.30646E-003	0.00000E+000	6.52550E-001	-1.20455E-004	10	...........	-327.56
	414	207.5	6.60763E-001	6.28888E-003	0.00000E+000	6.61550E-001	-1.22821E-004	10	...........	-327.56
	423	212	6.69802E-001	6.31233E-003	0.00000E+000	6.70550E-001	-1.22955E-004	10	...........	-327.56
	432	216.5	6.78716E-001	6.16336E-003	0.00000E+000	6.79550E-001	-1.23721E-004	10	...........	-327.56
	441	221	6.87764E-001	6.27342E-003	0.00000E+000	6.88550E-001	-1.21755E-004	10	...........	-327.56
	450	225.5	6.96782E-001	6.25365E-003	0.00000E+000	6.97550E-001	-1.20555E-004	10	...........	-327.56
	459	230	7.05661E-001	6.26397E-003	0.00000E+000	7.06550E-001	-1.23588E-004	10	...........	-327.56
	468	234.5	7.14722E-001	6.27052E-003	0.00000E+000	7.15550E-001	-1.20255E-004	10	...........	-327.56
	477	239	7.23725E-001	6.33555E-003	0.00000E+000	7.24550E-001	-1.18055E-004	10	...........	-327.56
	486	243.5	7.32725E-001	6.41734E-003	0.00000E+000	7.33550E-001	-1.23921E-004	10	...........	-327.56
	495	248	7.41674E-001	6.49805E-003	0.00000E+000	7.42550E-001	-1.19988E-004	10	...........	-327.56
	504	252.5	7.50722E-001	6.49003E-003	0.00000E+000	7.51550E-001	-1.22988E-004	10	...........	-327.56
	513	257	7.59648E-001	6.56433E-003	0.00000E+000	7.60550E-001	-1.22588E-004	10	...........	-327.56
	522	261.5	7.68671E-001	6.59408E-003	0.00000E+000	7.69550E-001	-1.15855E-004	10	...........	-327.56
	531	266	7.77700E-001	6.71349E-003	0.00000E+000	7.78550E-001	-1.21821E-004	10	...........	-327.56
	540	270.5	7.86632E-001	6.55940E-003	0.00000E+000	7.87550E-001	-1.24288E-004	10	...........	-327.56
	549	275	7.95660E-001	6.68252E-003	0.00000E+000	7.96550E-001	-1.20288E-004	10	...........	-327.56
	558	279.5	8.04695E-001	6.68931E-003	0.00000E+000	8.05550E-001	-1.22721E-004	10	...........	-327.56
	567	284	8.13600E-001	6.73977E-003	0.00000E+000	8.14550E-001	-1.19955E-004	10	...........	-327.56
	576	288.5	8.22609E-001	6.72671E-003	0.00000E+000	8.23550E-001	-1.20588E-004	10	...........	-327.56
	585	293	8.31589E-001	6.68417E-003	0.00000E+000	8.32550E-001	-1.19588E-004	10	...........	-327.56
	594	297.5	8.40564E-001	6.76985E-003	0.00000E+000	8.41550E-001	-1.20088E-004	10	...........	-327.56
	603	302	8.49617E-001	6.66947E-003	0.00000E+000	8.50550E-001	-1.22588E-004	10	...........	-327.56
	612	306.5	8.58492E-001	6.71915E-003	0.00000E+000	8.59550E-001	-1.25188E-004	10	...........	-327.56
	621	311	8.67556E-001	6.74045E-003	0.00000E+000	8.68550E-001	-1.21855E-004	10	...........	-327.56
	630	315.5	8.76608E-001	6.73554E-003	0.00000E+000	8.77550E-001	-1.19521E-004	10	...........	-327.56
	639	320	8.85496E-001	6.71108E-003	0.00000E+000	8.86550E-001	-1.21088E-004	10	...........	-327.56
	648	324.5	8.94550E-001	6.72710E-003	0.00000E+000	8.95550E-001	-1.22988E-004	10	...........	-327.56
	657	329	9.03575E-001	6.74995E-003	0.00000E+000	9.04550E-001	-1.19788E-004	10	...........	-327.56
	666	333.5	9.12508E-001	6.67060E-003	0.00000E+000	9.13550E-001	-1.22255E-004	10	...........	-327.56
	675	338	9.21537E-001	6.71411E-003	0.00000E+000	9.22550E-001	-1.22721E-004	10	...........	-327.56
	684	342.5	9.30525E-001	6.72212E-003	0.00000E+000	9.31550E-001	-1.23721E-004	10	...........	-327.56
	693	347	9.39449E-001	6.71076E-003	0.00000E+000	9.40550E-001	-1.21655E-004	10	...........	-327.56
	702	351.5	9.48491E-001	6.79783E-003	0.00000E+000	9.49550E-001	-1.18688E-004	10	...........	-327.56
	711	356	9.57510E-001	6.63412E-003	0.00000E+000	9.58550E-001	-1.19021E-004	10	...........	-327.56
	720	360.5	9.66437E-001	6.73369E-003	0.00000E+000	9.67550E-001	-1.18988E-004	10	...........	-327.56
	729	365	9.75468E-001	6.67329E-003	0.00000E+000	9.76550E-001	-1.22988E-004	10	...........	-327.56
	738	369.5	9.84487E-001	6.73289E-003	0.00000E+000	9.85550E-001	-1.20721E-004	10	...........	-327.56
	747	374	9.93488E-001	6.75091E-003	0.00000E+000	9.94550E-001	-1.21088E-004	10	...........	-327.56
	756	378.5	1.00247E+000	6.82255E-003	0.00000E+000	1.00355E+000	-1.27321E-004	10	...........	-327.56
	765	383	1.01139E+000	6.78514E-003	0.00000E+000	1.01255E+000	-1.20121E-004	10	...........	-327.56
	774	387.5	1.02040E+000	6.98470E-003	0.00000E+000	1.02155E+000	-1.18821E-004	10	...........	-327.56
	783	392	1.02944E+000	7.15328E-003	0.00000E+000	1.03055E+000	-1.19221E-004	10	...........	-327.56
	792	396.5	1.03836E+000	7.30726E-003	0.00000E+000	1.03955E+000	-1.22988E-004	10	...........	-327.56
	801	401	1.04739E+000	7.59062E-003	0.00000E+000	1.04855E+000	-1.21721E-004	10	...........	-327.56
	810	405.5	1.05640E+000	7.83808E-003	0.00000E+000	1.05755E+000	-1.15288E-004	10	...........	-327.56
	819	410	1.06538E+000	8.20121E-003	0.00000E+000	1.06655E+000	-1.22888E-004	10	...........	-327.56
	828	414.5	1.07434E+000	8.59566E-003	0.00000E+000	1.07555E+000	-1.20755E-004	10	...........	-327.56
	837	419	1.08338E+000	9.04426E-003	0.00000E+000	1.08455E+000	-1.20355E-004	10	...........	-327.56
	846	423.5	1.09230E+000	9.56735E-003	0.00000E+000	1.09355E+000	-1.20155E-004	10	...........	-327.56
	855	428	1.10132E+000	1.01764E-002	0.00000E+000	1.10255E+000	-1.19588E-004	10	...........	-327.56
	864	432.5	1.11034E+000	1.09237E-002	0.00000E+000	1.11155E+000	-1.20555E-004	10	...........	-327.56
	873	437	1.11926E+000	1.16502E-002	0.00000E+000	1.12055E+000	-1.21355E-004	10	...........	-327.56
	882	441.5	1.12825E+000	1.23163E-002	0.00000E+000	1.12955E+000	-1.18088E-004	10	...........	-327.56
	891	446	1.13726E+000	1.30486E-002	0.00000E+000	1.13855E+000	-1.19388E-004	10	...........	-327.56
	900	450.5	1.14618E+000	1.39650E-002	0.00000E+000	1.14755E+000	-1.17655E-004	10	...........	-327.56
	909	455	1.15520E+000	1.47691E-002	0.00000E+000	1.15655E+000	-1.22588E-004	10	...........	-327.56
	918	459.5	1.16420E+000	1.55508E-002	0.00000E+000	1.16555E+000	-1.21221E-004	10	...........	-327.56
	927	464	1.17314E+000	1.64906E-002	0.00000E+000	1.17455E+000	-1.18521E-004	10	...........	-327.56
	936	468.5	1.18217E+000	1.74994E-002	0.00000E+000	1.18355E+000	-1.18655E-004	10	...........	-327.56
	945	473	1.19105E+000	1.84051E-002	0.00000E+000	1.19255E+000	-1.18788E-004	10	...........	-327.56
	954	477.5	1.20006E+000	1.96606E-002	0.00000E+000	1.20155E+000	-1.20855E-004	10	...........	-327.56
	963	482	1.20909E+000	2.13611E-002	0.00000E+000	1.21055E+000	-1.18855E-004	10	...........	-327.56
	972	486.5	1.21798E+000	2.32466E-002	0.00000E+000	1.21955E+000	-1.14255E-004	10	...........	-327.56
	981	491	1.22703E+000	2.55551E-002	0.00000E+000	1.22855E+000	-1.16688E-004	10	...........	-327.56
	990	495.5	1.23631E+000	2.88505E-002	0.00000E+000	1.23755E+000	-1.21021E-004	11	...........	-327.56
	999	500	1.24521E+000	3.21624E-002	0.00000E+000	1.24655E+000	-1.21721E-004	11	...........	-327.56
	1008	504.5	1.25429E+000	3.64316E-002	0.00000E+000	1.25555E+000	-1.21821E-004	11	...........	-327.56
	1017	509	1.26329E+000	3.91978E-002	0.00000E+000	1.26455E+000	-1.26355E-004	11	...........	-327.56
	1026	513.5	1.27222E+000	4.37167E-002	0.00000E+000	1.27355E+000	-1.19021E-004	11	...........	-327.56
	1035	518	1.28121E+000	4.98930E-002	0.00000E+000	1.28255E+000	-1.21855E-004	11	...........	-327.56
	1044	522.5	1.29025E+000	5.65294E-002	0.00000E+000	1.29155E+000	-1.13788E-004	11	...........	-327.56
	1053	527	1.29916E+000	6.29142E-002	0.00000E+000	1.30055E+000	-1.20921E-004	11	...........	-327.56
	1062	531.5	1.30820E+000	6.85383E-002	0.00000E+000	1.30955E+000	-1.23788E-004	11	...........	-327.56
	1071	536	1.31719E+000	7.57778E-002	0.00000E+000	1.31855E+000	-1.17421E-004	11	...........	-327.56
	1080	540.5	1.32613E+000	8.92528E-002	0.00000E+000	1.32755E+000	-1.25188E-004	11	...........	-327.56
	1089	545	1.33508E+000	1.03060E-001	0.00000E+000	1.33655E+000	-1.19355E-004	11	...........	-327.56
	1098	549.5	1.34404E+000	1.13294E-001	0.00000E+000	1.34555E+000	-1.21355E-004	11	...........	-327.56
	1107	554	1.35299E+000	1.26262E-001	0.00000E+000	1.35455E+000	-1.22388E-004	11	...........	-327.56
	1116	558.5	1.36200E+000	1.38052E-001	0.00000E+000	1.36355E+000	-1.19488E-004	11	...........	-327.56
	1125	563	1.37092E+000	1.52560E-001	0.00000E+000	1.37255E+000	-1.24088E-004	11	...........	-327.56
	1134	567.5	1.37990E+000	1.67652E-001	0.00000E+000	1.38155E+000	-1.18988E-004	11	...........	-327.56
	1143	572	1.38893E+000	1.83388E-001	0.00000E+000	1.39055E+000	-1.19388E-004	11	...........	-327.56
	1152	576.5	1.39782E+000	1.98191E-001	0.00000E+000	1.39955E+000	-1.18488E-004	11	...........	-327.56
	1161	581	1.40681E+000	2.15222E-001	0.00000E+000	1.40855E+000	-1.20555E-004	11	...........	-327.56
	1170	585.5	1.41583E+000	2.31352E-001	0.00000E+000	1.41755E+000	-1.16255E-004	11	...........	-327.56
	1179	590	1.42473E+000	2.44552E-001	0.00000E+000	1.42655E+000	-1.15321E-004	11	...........	-327.56
	1188	594.5	1.43373E+000	2.57082E-001	0.00000E+000	1.43555E+000	-1.18388E-004	11	...........	-327.56
	1197	599	1.44302E+000	2.72805E-001	0.00000E+000	1.44455E+000	-1.19688E-004	12	...........	-327.56
	1206	603.5	1.45193E+000	2.85965E-001	0.00000E+000	1.45355E+000	-1.20421E-004	12	...........	-327.56
	1215	608	1.46098E+000	3.00901E-001	0.00000E+000	1.46255E+000	-1.24788E-004	12	...........	-327.56
	1224	612.5	1.46997E+000	3.13589E-001	0.00000E+000	1.47155E+000	-1.18688E-004	12	...........	-327.56
	1233	617	1.47890E+000	3.44257E-001	0.00000E+000	1.48055E+000	-1.17455E-004	12	...........	-327.56
	1242	621.5	1.48793E+000	3.59388E-001	0.00000E+000	1.48955E+000	-1.20688E-004	12	...........	-327.56
	1251	626	1.49690E+000	3.77342E-001	0.00000E+000	1.49855E+000	-1.29188E-004	12	...........	-327.56
	1260	630.5	1.50584E+000	3.95198E-001	0.00000E+000	1.50755E+000	-1.19921E-004	12	...........	-327.56
	1269	635	1.51487E+000	4.12322E-001	0.00000E+000	1.51655E+000	-1.24488E-004	12	...........	-327.56
	1278	639.5	1.52377E+000	4.31225E-001	0.00000E+000	1.52555E+000	-1.26488E-004	12	...........	-327.56
	1287	644	1.53278E+000	4.47989E-001	0.00000E+000	1.53455E+000	-1.25421E-004	12	...........	-327.56
	1296	648.5	1.54179E+000	4.64031E-001	0.00000E+000	1.54355E+000	-1.27455E-004	12	...........	-327.56
	1305	653	1.55068E+000	4.85084E-001	0.00000E+000	1.55255E+000	-1.21755E-004	12	...........	-327.56
	1314	657.5	1.55970E+000	5.06825E-001	0.00000E+000	1.56155E+000	-1.18921E-004	12	...........	-327.56
	1323	662	1.56872E+000	5.29407E-001	0.00000E+000	1.57055E+000	-1.17388E-004	12	...........	-327.56
	1332	666.5	1.57761E+000	5.47299E-001	0.00000E+000	1.57955E+000	-1.23655E-004	12	...........	-327.56
	1341	671	1.58666E+000	5.65069E-001	0.00000E+000	1.58855E+000	-1.21255E-004	12	...........	-327.56
	1350	675.5	1.59566E+000	5.84395E-001	0.00000E+000	1.59755E+000	-1.25121E-004	12	...........	-327.56
	1359	680	1.60467E+000	6.08772E-001	0.00000E+000	1.60655E+000	-1.21988E-004	12	...........	-327.56
	1368	684.5	1.61360E+000	6.35637E-001	0.00000E+000	1.61555E+000	-1.20088E-004	12	...........	-327.56
	1377	689	1.62263E+000	6.54453E-001	0.00000E+000	1.62455E+000	-1.19988E-004	12	...........	-327.56
	1386	693.5	1.63153E+000	6.71927E-001	0.00000E+000	1.63355E+000	-1.21421E-004	12	...........	-327.56
	1395	698	1.64054E+000	7.01552E-001	0.00000E+000	1.64255E+000	-1.18988E-004	12	...........	-327.56
	1404	702.5	1.64955E+000	7.20333E-001	0.00000E+000	1.65155E+000	-1.22921E-004	12	...........	-327.56
	1413	707	1.65845E+000	7.54059E-001	0.00000E+000	1.66055E+000	-1.22455E-004	12	...........	-327.56
	1422	711.5	1.66748E+000	7.72035E-001	0.00000E+000	1.66955E+000	-1.16121E-004	12	...........	-327.56
	1431	716	1.67647E+000	7.88378E-001	0.00000E+000	1.67855E+000	-1.22355E-004	12	...........	-327.56
	1440	720.5	1.68542E+000	7.99409E-001	0.00000E+000	1.68755E+000	-1.18088E-004	12	...........	-327.56
	1449	725	1.69443E+000	8.22680E-001	0.00000E+000	1.69655E+000	-1.18255E-004	12	...........	-327.56
	1458	729.5	1.69142E+000	8.24884E-001	0.00000E+000	1.69355E+000	-1.18388E-004	12	...........	-327.56
	1467	734	1.68238E+000	8.20873E-001	0.00000E+000	1.68455E+000	-1.18188E-004	12	...........	-327.56
	1476	738.5	1.67349E+000	8.04363E-001	0.00000E+000	1.67555E+000	-1.16221E-004	12	...........	-327.56
	1485	743	1.66443E+000	7.94375E-001	0.00000E+000	1.66655E+000	-1.17588E-004	12	...........	-327.56
	1494	747.5	1.65543E+000	7.79739E-001	0.00000E+000	1.65755E+000	-1.20455E-004	12	...........	-327.56
	1503	752	1.64652E+000	7.65963E-001	0.00000E+000	1.64855E+000	-1.20255E-004	12	...........	-327.56
	1512	756.5	1.63749E+000	7.53067E-001	0.00000E+000	1.63955E+000	-1.18655E-004	12	...........	-327.56
	1521	761	1.62851E+000	7.42189E-001	0.00000E+000	1.63055E+000	-1.20655E-004	12	...........	-327.56
	1530	765.5	1.61958E+000	7.23853E-001	0.00000E+000	1.62155E+000	-1.20655E-004	12	...........	-327.56
	1539	770	1.61053E+000	7.08100E-001	0.00000E+000	1.61255E+000	-1.21821E-004	12	...........	-327.56
	1548	774.5	1.60153E+000	7.00464E-001	0.00000E+000	1.60355E+000	-1.20821E-004	12	...........	-327.56
	1557	779	1.59261E+000	6.81923E-001	0.00000E+000	1.59455E+000	-1.20488E-004	12	...........	-327.56
	1566	783.5	1.58357E+000	6.69650E-001	0.00000E+000	1.58555E+000	-1.17821E-004	12	...........	-327.56
	1575	788	1.57458E+000	6.44319E-001	0.00000E+000	1.57655E+000	-1.22788E-004	12	...........	-327.56
	1584	792.5	1.56566E+000	6.21048E-001	0.00000E+000	1.56755E+000	-1.22288E-004	12	...........	-327.56
	1593	797	1.55669E+000	6.11255E-001	0.00000E+000	1.55855E+000	-1.20455E-004	12	...........	-327.56
	1602	801.5	1.54769E+000	5.99040E-001	0.00000E+000	1.54955E+000	-1.19888E-004	12	...........	-327.56
	1611	806	1.53869E+000	5.79332E-001	0.00000E+000	1.54055E+000	-1.19521E-004	12	...........	-327.56
	1620	810.5	1.52969E+000	5.66653E-001	0.00000E+000	1.53155E+000	-1.22221E-004	12	...........	-327.56
	1629	815	1.52078E+000	5.46668E-001	0.00000E+000	1.52255E+000	-1.18621E-004	12	...........	-327.56
	1638	819.5	1.51180E+000	5.36211E-001	0.00000E+000	1.51355E+000	-1.22055E-004	12	...........	-327.56
	1647	824	1.50275E+000	5.21624E-001	0.00000E+000	1.50455E+000	-1.16255E-004	12	...........	-327.56
	1656	828.5	1.49383E+000	5.05921E-001	0.00000E+000	1.49555E+000	-1.17155E-004	12	...........	-327.56
	1665	833	1.48479E+000	4.87274E-001	0.00000E+000	1.48655E+000	-1.21121E-004	12	...........	-327.56
	1674	837.5	1.47579E+000	4.77806E-001	0.00000E+000	1.47755E+000	-1.23421E-004	12	...........	-327.56
	1683	842	1.46687E+000	4.58718E-001	0.00000E+000	1.46855E+000	-1.21688E-004	12	...........	-327.56
	1692	846.5	1.45784E+000	4.44443E-001	0.00000E+000	1.45955E+000	-1.16088E-004	12	...........	-327.56
	1701	851	1.44880E+000	4.30121E-001	0.00000E+000	1.45055E+000	-1.20755E-004	12	...........	-327.56
	1710	855.5	1.43992E+000	4.13021E-001	0.00000E+000	1.44155E+000	-1.21621E-004	12	...........	-327.56
	1719	860	1.43090E+000	3.97676E-001	0.00000E+000	1.43255E+000	-1.16888E-004	12	...........	-327.56
	1728	864.5	1.42186E+000	3.83187E-001	0.00000E+000	1.42355E+000	-1.21988E-004	12	...........	-327.56
	1737	869	1.41300E+000	3.68948E-001	0.00000E+000	1.41455E+000	-1.19321E-004	12	...........	-327.56
	1746	873.5	1.40394E+000	3.54494E-001	0.00000E+000	1.40555E+000	-1.18588E-004	12	...........	-327.56
	1755	878	1.39501E+000	3.38872E-001	0.00000E+000	1.39655E+000	-1.19421E-004	12	...........	-327.56
	1764	882.5	1.38600E+000	3.24240E-001	0.00000E+000	1.38755E+000	-1.18021E-004	12	...........	-327.56
	1773	887	1.37700E+000	3.09549E-001	0.00000E+000	1.37855E+000	-1.22388E-004	12	...........	-327.56
	1782	891.5	1.36804E+000	2.95574E-001	0.00000E+000	1.36955E+000	-1.18721E-004	12	...........	-327.56
	1791	896	1.35905E+000	2.81044E-001	0.00000E+000	1.36055E+000	-1.18688E-004	12	...........	-327.56
	1800	900.5	1.35002E+000	2.68241E-001	0.00000E+000	1.35155E+000	-1.19188E-004	12	...........	-327.56
	1809	905	1.34111E+000	2.54201E-001	0.00000E+000	1.34255E+000	-1.21655E-004	12	...........	-327.56
	1818	909.5	1.33208E+000	2.42263E-001	0.00000E+000	1.33355E+000	-1.19188E-004	12	...........	-327.56
	1827	914	1.32287E+000	2.27382E-001	0.00000E+000	1.32455E+000	-1.17155E-004	11	...........	-327.56
	1836	918.5	1.31395E+000	2.13383E-001	0.00000E+000	1.31555E+000	-1.15621E-004	11	...........	-327.56
	1845	923	1.30495E+000	1.99864E-001	0.00000E+000	1.30655E+000	-1.19388E-004	11	...........	-327.56
	1854	927.5	1.29595E+000	1.87505E-001	0.00000E+000	1.29755E+000	-1.16855E-004	11	...........	-327.56
	1863	932	1.28704E+000	1.73111E-001	0.00000E+000	1.28855E+000	-1.15755E-004	11	...........	-327.56
	1872	936.5	1.27801E+000	1.60771E-001	0.00000E+000	1.27955E+000	-1.17055E-004	11	...........	-327.56
	1881	941	1.26900E+000	1.49760E-001	0.00000E+000	1.27055E+000	-1.17955E-004	11	...........	-327.56
	1890	945.5	1.26012E+000	1.38557E-001	0.00000E+000	1.26155E+000	-1.20421E-004	11	...........	-327.56
	1899	950	1.25114E+000	1.17000E-001	0.00000E+000	1.25255E+000	-1.19188E-004	11	...........	-327.56
	1908	954.5	1.24207E+000	1.07060E-001	0.00000E+000	1.24355E+000	-1.19455E-004	11	...........	-327.56
	1917	959	1.23317E+000	9.68770E-002	0.00000E+000	1.23455E+000	-1.20488E-004	11	...........	-327.56
	1926	963.5	1.22418E+000	8.73484E-002	0.00000E+000	1.22555E+000	-1.19288E-004	11	...........	-327.56
	1935	968	1.21523E+000	7.71446E-002	0.00000E+000	1.21655E+000	-1.19255E-004	11	...........	-327.56
	1944	972.5	1.20628E+000	6.83475E-002	0.00000E+000	1.20755E+000	-1.21421E-004	11	...........	-327.56
	1953	977	1.19721E+000	6.12086E-002	0.00000E+000	1.19855E+000	-1.19021E-004	11	...........	-327.56
	1962	981.5	1.18827E+000	5.45209E-002	0.00000E+000	1.18955E+000	-1.18355E-004	11	...........	-327.56
	1971	986	1.17929E+000	4.81470E-002	0.00000E+000	1.18055E+000	-1.20355E-004	11	...........	-327.56
	1980	990.5	1.17025E+000	4.24405E-002	0.00000E+000	1.17155E+000	-1.17221E-004	11	...........	-327.56
	1989	995	1.16135E+000	3.69639E-002	0.00000E+000	1.16255E+000	-1.19121E-004	11	...........	-327.56
	1998	999.5	1.15232E+000	3.08409E-002	0.00000E+000	1.15355E+000	-1.21688E-004	11	...........	-327.56
	2007	1004	1.14332E+000	2.70729E-002	0.00000E+000	1.14455E+000	-1.21821E-004	11	...........	-327.56
	2016	1008.5	1.13414E+000	2.32808E-002	0.00000E+000	1.13555E+000	-1.15721E-004	10	...........	-327.56
	2025	1013	1.12517E+000	1.97424E-002	0.00000E+000	1.12655E+000	-1.20588E-004	10	...........	-327.56
	2034	1017.5	1.11618E+000	1.68979E-002	0.00000E+000	1.11755E+000	-1.20355E-004	10	...........	-327.56
	2043	1022	1.10729E+000	1.42980E-002	0.00000E+000	1.10855E+000	-1.18188E-004	10	...........	-327.56
	2052	1026.5	1.09826E+000	1.22311E-002	0.00000E+000	1.09955E+000	-1.16188E-004	10	...........	-327.56
	2061	1031	1.08928E+000	1.05900E-002	0.00000E+000	1.09055E+000	-1.22855E-004	10	...........	-327.56
	2070	1035.5	1.08037E+000	9.28003E-003	0.00000E+000	1.08155E+000	-1.20855E-004	10	...........	-327.56
	2079	1040	1.07136E+000	8.06877E-003	0.00000E+000	1.07255E+000	-1.18588E-004	10	...........	-327.56
	2088	1044.5	1.06239E+000	7.21852E-003	0.00000E+000	1.06355E+000	-1.20755E-004	10	...........	-327.56
	2097	1049	1.05342E+000	6.44721E-003	0.00000E+000	1.05455E+000	-1.17855E-004	10	...........	-327.56
	2106	1053.5	1.04437E+000	5.79874E-003	0.00000E+000	1.04555E+000	-1.17888E-004	10	...........	-327.56
	2115	1058	1.03547E+000	5.26598E-003	0.00000E+000	1.03655E+000	-1.19955E-004	10	...........	-327.56
	2124	1062.5	1.02645E+000	4.85755E-003	0.00000E+000	1.02755E+000	-1.21355E-004	10	...........	-327.56
	2133	1067	1.01751E+000	4.50007E-003	0.00000E+000	1.01855E+000	-1.20555E-004	10	...........	-327.56
	2142	1071.5	1.00850E+000	4.24591E-003	0.00000E+000	1.00955E+000	-1.18988E-004	10	...........	-327.56
	2151	1076	9.99489E-001	4.09922E-003	0.00000E+000	1.00055E+000	-1.20421E-004	10	...........	-327.56
	2160	1080.5	9.90429E-001	3.93462E-003	0.00000E+000	9.91550E-001	-1.20621E-004	10	...........	-327.56
	2169	1085	9.81520E-001	3.87399E-003	0.00000E+000	9.82550E-001	-1.18555E-004	10	...........	-327.56
	2178	1089.5	9.72486E-001	3.74121E-003	0.00000E+000	9.73550E-001	-1.19155E-004	10	...........	-327.56
	2187	1094	9.63474E-001	3.64175E-003	0.00000E+000	9.64550E-001	-1.20621E-004	10	...........	-327.56
	2196	1098.5	9.54541E-001	3.50849E-003	0.00000E+000	9.55550E-001	-1.17821E-004	10	...........	-327.56
	2205	1103	9.45539E-001	3.43256E-003	0.00000E+000	9.46550E-001	-1.21121E-004	10	...........	-327.56
	2214	1107.5	9.36467E-001	3.34951E-003	0.00000E+000	9.37550E-001	-1.19721E-004	10	...........	-327.56
	2223	1112	9.27558E-001	3.28721E-003	0.00000E+000	9.28550E-001	-1.18688E-004	10	...........	-327.56
	2232	1116.5	9.18574E-001	3.24413E-003	0.00000E+000	9.19550E-001	-1.18321E-004	10	...........	-327.56
	2241	1121	9.09502E-001	3.20939E-003	0.00000E+000	9.10550E-001	-1.22721E-004	10	...........	-327.56
	2250	1125.5	9.00648E-001	3.17125E-003	0.00000E+000	9.01550E-001	-1.20121E-004	10	...........	-327.56
	2259	1130	8.91574E-001	3.12734E-003	0.00000E+000	8.92550E-001	-1.22688E-004	10	...........	-327.56
	2268	1134.5	8.82614E-001	3.10859E-003	0.00000E+000	8.83550E-001	-1.21888E-004	10	...........	-327.56
	2277	1139	8.73618E-001	3.07130E-003	0.00000E+000	8.74550E-001	-1.21688E-004	10	...........	-327.56
	2286	1143.5	8.64600E-001	3.03706E-003	0.00000E+000	8.65550E-001	-1.17788E-004	10	...........	-327.56
	2295	1148	8.55652E-001	2.98251E-003	0.00000E+000	8.56550E-001	-1.17988E-004	10	...........	-327.56
	2304	1152.5	8.46652E-001	2.95810E-003	0.00000E+000	8.47550E-001	-1.21155E-004	10	...........	-327.56
	2313	1157	8.37583E-001	2.93991E-003	0.00000E+000	8.38550E-001	-1.18821E-004	10	...........	-327.56
	2322	1161.5	8.28681E-001	2.89328E-003	0.00000E+000	8.29550E-001	-1.21521E-004	10	...........	-327.56
	2331	1166	8.19633E-001	2.84543E-003	0.00000E+000	8.20550E-001	-1.17655E-004	10	...........	-327.56
	2340	1170.5	8.10651E-001	2.78755E-003	0.00000E+000	8.11550E-001	-1.19521E-004	10	...........	-327.56
	2349	1175	8.01727E-001	2.72550E-003	0.00000E+000	8.02550E-001	-1.21055E-004	10	...........	-327.56
	2358	1179.5	7.92688E-001	2.54877E-003	0.00000E+000	7.93550E-001	-1.16755E-004	10	...........	-327.56
	2367	1184	7.83685E-001	2.54923E-003	0.00000E+000	7.84550E-001	-1.20788E-004	10	...........	-327.56
	2376	1188.5	7.74748E-001	2.55731E-003	0.00000E+000	7.75550E-001	-1.19455E-004	10	...........	-327.56
	2385	1193	7.65725E-001	2.53009E-003	0.00000E+000	7.66550E-001	-1.20055E-004	10	...........	-327.56
	2394	1197.5	7.56731E-001	2.51119E-003	0.00000E+000	7.57550E-001	-1.21688E-004	10	...........	-327.56
	2403	1202	7.47783E-001	2.50057E-003	0.00000E+000	7.48550E-001	-1.17688E-004	10	...........	-327.56
	2412	1206.5	7.38705E-001	2.48509E-003	0.00000E+000	7.39550E-001	-1.19488E-004	10	...........	-327.56
	2421	1211	7.29728E-001	2.46083E-003	0.00000E+000	7.30550E-001	-1.19488E-004	10	...........	-327.56
	2430	1215.5	7.20774E-001	2.46618E-003	0.00000E+000	7.21550E-001	-1.22055E-004	10	...........	-327.56
	2439	1220	7.11826E-001	2.45094E-003	0.00000E+000	7.12550E-001	-1.18555E-004	10	...........	-327.56
	2448	1224.5	7.02557E-001	2.56769E-003	0.00000E+000	7.03550E-001	-1.20921E-004	9	...........	-327.56
	2457	1229	6.93552E-001	2.41285E-003	0.00000E+000	6.94550E-001	-1.14455E-004	9	...........	-327.56
	2466	1233.5	6.84528E-001	2.41642E-003	0.00000E+000	6.85550E-001	-1.16821E-004	9	...........	-327.56
	2475	1238	6.75585E-001	2.38733E-003	0.00000E+000	6.76550E-001	-1.16488E-004	9	...........	-327.56
	2484	1242.5	6.66561E-001	2.30263E-003	0.00000E+000	6.67550E-001	-1.19788E-004	9	...........	-327.56
	2493	1247	6.57552E-001	2.25400E-003	0.00000E+000	6.58550E-001	-1.18188E-004	9	...........	-327.56
	2502	1251.5	6.48633E-001	2.18364E-003	0.00000E+000	6.49550E-001	-1.16988E-004	9	...........	-327.56
	2511	1256	6.39581E-001	2.12979E-003	0.00000E+000	6.40550E-001	-1.17021E-004	9	...........	-327.56
	2520	1260.5	6.30579E-001	2.07799E-003	0.00000E+000	6.31550E-001	-1.17888E-004	9	...........	-327.56
	2529	1265	6.21646E-001	2.03314E-003	0.00000E+000	6.22550E-001	-1.17588E-004	9	...........	-327.56
	2538	1269.5	6.12682E-001	2.04654E-003	0.00000E+000	6.13550E-001	-1.18755E-004	9	...........	-327.56
	2547	1274	6.03582E-001	2.09654E-003	0.00000E+000	6.04550E-001	-1.18755E-004	9	...........	-327.56
	2556	1278.5	5.94666E-001	2.09772E-003	0.00000E+000	5.95550E-001	-1.18221E-004	9	...........	-327.56
	2565	1283	5.85641E-001	2.00228E-003	0.00000E+000	5.86550E-001	-1.17988E-004	9	...........	-327.56
	2574	1287.5	5.76612E-001	1.94363E-003	0.00000E+000	5.77550E-001	-1.14721E-004	9	...........	-327.56
	2583	1292	5.67727E-001	1.81516E-003	0.00000E+000	5.68550E-001	-1.18921E-004	9	...........	-327.56
	2592	1296.5	5.58700E-001	1.70016E-003	0.00000E+000	5.59550E-001	-1.15988E-004	9	...........	-327.56
	2601	1301	5.49769E-001	1.60378E-003	0.00000E+000	5.50550E-001	-1.18621E-004	9	...........	-327.56
	2610	1305.5	5.40779E-001	1.41620E-003	0.00000E+000	5.41550E-001	-1.19188E-004	9	...........	-327.56
	2619	1310	5.31766E-001	1.27831E-003	0.00000E+000	5.32550E-001	-1.18455E-004	9	...........	-327.56
	2628	1314.5	5.22843E-001	1.11059E-003	0.00000E+000	5.23550E-001	-1.18855E-004	9	...........	-327.56
	2637	1319	5.13866E-001	9.23938E-004	0.00000E+000	5.14550E-001	-1.20021E-004	9	...........	-327.56
	2646	1323.5	5.04870E-001	8.20000E-004	0.00000E+000	5.05550E-001	-1.21555E-004	9	...........	-327.56
	2655	1328	4.95973E-001	5.74750E-004	0.00000E+000	4.96550E-001	-1.22621E-004	9	...........	-327.56
	2664	1332.5	4.86965E-001	3.91205E-004	0.00000E+000	4.87550E-001	-1.16055E-004	9	...........	-327.56
	2673	1337	4.77768E-001	1.87717E-004	0.00000E+000	4.78550E-001	-1.22888E-004	8	...........	-327.56
	2682	1341.5	4.69034E-001	2.97029E-005	0.00000E+000	4.69550E-001	-1.19555E-004	8	...........	-327.56
	2691	1346	4.60192E-001	-1.25764E-004	0.00000E+000	4.60550E-001	-1.23055E-004	8	...........	-327.56
	2700	1350.5	4.51244E-001	-2.09284E-004	0.00000E+000	4.51550E-001	-1.13388E-004	8	...........	-327.56
	2709	1355	4.42120E-001	-3.12525E-004	0.00000E+000	4.42550E-001	-1.18521E-004	9	...........	-327.56
	2718	1359.5	4.33099E-001	-5.22473E-004	0.00000E+000	4.33550E-001	-1.18555E-004	9	...........	-327.56
	2727	1364	4.24132E-001	-7.57570E-004	0.00000E+000	4.24550E-001	-1.22355E-004	9	...........	-327.56
	2736	1368.5	4.15197E-001	-9.19228E-004	0.00000E+000	4.15550E-001	-1.17588E-004	9	...........	-327.56
	2745	1373	4.06216E-001	-1.04862E-003	0.00000E+000	4.06550E-001	-1.17421E-004	9	...........	-327.56
	2754	1377.5	3.97139E-001	-1.11801E-003	0.00000E+000	3.97550E-001	-1.15121E-004	9	...........	-327.56
	2763	1382	3.88255E-001	-1.30015E-003	0.00000E+000	3.88550E-001	-1.17255E-004	9	...........	-327.56
	2772	1386.5	3.79220E-001	-1.36682E-003	0.00000E+000	3.79550E-001	-1.20988E-004	9	...........	-327.56
	2781	1391	3.70293E-001	-1.50472E-003	0.00000E+000	3.70550E-001	-1.15655E-004	9	...........	-327.56
	2790	1395.5	3.61306E-001	-1.58140E-003	0.00000E+000	3.61550E-001	-1.15788E-004	9	...........	-327.56
	2799	1400	3.52292E-001	-1.73690E-003	0.00000E+000	3.52550E-001	-1.14755E-004	9	...........	-327.56
	2808	1404.5	3.43362E-001	-1.87319E-003	0.00000E+000	3.43550E-001	-1.16388E-004	9	...........	-327.56
	2817	1409	3.34369E-001	-2.05050E-003	0.00000E+000	3.34550E-001	-1.19221E-004	9	...........	-327.56
	2826	1413.5	3.25373E-001	-2.16424E-003	0.00000E+000	3.25550E-001	-1.11021E-004	9	...........	-327.56
	2835	1418	3.16442E-001	-2.34631E-003	0.00000E+000	3.16550E-001	-1.09688E-004	9	...........	-327.56
	2844	1422.5	3.07431E-001	-2.43293E-003	0.00000E+000	3.07550E-001	-1.18655E-004	9	...........	-327.56
	2853	1427	2.98460E-001	-2.57293E-003	0.00000E+000	2.98550E-001	-1.07021E-004	9	...........	-327.56
	2862	1431.5	2.89246E-001	-2.77258E-003	0.00000E+000	2.89550E-001	-1.19621E-004	10	...........	-327.56
	2871	1436	2.80224E-001	-2.85471E-003	0.00000E+000	2.80550E-001	-1.22755E-004	10	...........	-327.56
	2880	1440.5	2.71175E-001	-2.94862E-003	0.00000E+000	2.71550E-001	-1.19221E-004	10	...........	-327.56
	2889	1445	2.62286E-001	-2.98239E-003	0.00000E+000	2.62550E-001	-1.18188E-004	10	...........	-327.56
	2898	1449.5	2.53227E-001	-2.99596E-003	0.00000E+000	2.53550E-001	-1.20155E-004	10	...........	-327.56
	2907	1454	2.44179E-001	-3.14478E-003	0.00000E+000	2.44550E-001	-1.19221E-004	10	...........	-327.56
	2916	1458.5	2.35299E-001	-3.16963E-003	0.00000E+000	2.35550E-001	-1.20955E-004	10	...........	-327.56
	2925	1463	2.26237E-001	-3.26496E-003	0.00000E+000	2.26550E-001	-1.17421E-004	10	...........	-327.56
	2934	1467.5	2.17293E-001	-3.31668E-003	0.00000E+000	2.17550E-001	-1.18121E-004	10	...........	-327.56
	2943	1472	2.08303E-001	-3.33135E-003	0.00000E+000	2.08550E-001	-1.17988E-004	10	...........	-327.56
	2952	1476.5	1.99285E-001	-3.37993E-003	0.00000E+000	1.99550E-001	-1.21521E-004	10	...........	-327.56
	2961	1481	1.90338E-001	-3.43197E-003	0.00000E+000	1.90550E-001	-1.18788E-004	10	...........	-327.56
	2970	1485.5	1.81333E-001	-3.48009E-003	0.00000E+000	1.81550E-001	-1.18655E-004	10	...........	-327.56
	2979	1490	1.72287E-001	-3.53157E-003	0.00000E+000	1.72550E-001	-1.16321E-004	10	...........	-327.56
	2988	1494.5	1.63362E-001	-3.56111E-003	0.00000E+000	1.63550E-001	-1.17121E-004	10	...........	-327.56
	2997	1499	1.54334E-001	-3.62376E-003	0.00000E+000	1.54550E-001	-1.13688E-004	10	...........	-327.56
	3006	1503.5	1.45330E-001	-3.72103E-003	0.00000E+000	1.45550E-001	-1.18921E-004	10	...........	-327.56
	3015	1508	1.36391E-001	-3.79556E-003	0.00000E+000	1.36550E-001	-1.18321E-004	10	...........	-327.56
	3024	1512.5	1.27347E-001	-3.88451E-003	0.00000E+000	1.27550E-001	-1.17921E-004	10	...........	-327.56
	3033	1517	1.18343E-001	-3.96596E-003	0.00000E+000	1.18550E-001	-1.22155E-004	10	...........	-327.56
	3042	1521.5	1.09405E-001	-4.05521E-003	0.00000E+000	1.09550E-001	-1.15655E-004	10	...........	-327.56
	3051	1526	1.00395E-001	-4.13964E-003	0.00000E+000	1.00550E-001	-1.19588E-004	10	...........	-327.56
	3060	1530.5	9.13631E-002	-4.26819E-003	0.00000E+000	9.15500E-002	-1.19288E-004	10	...........	-327.56
	3069	1535	8.24535E-002	-4.36619E-003	0.00000E+000	8.25500E-002	-1.19321E-004	10	...........	-327.56
	3078	1539.5	7.34624E-002	-4.48680E-003	0.00000E+000	7.35500E-002	-1.20321E-004	10	...........	-327.56
	3087	1544	6.43717E-002	-4.60379E-003	0.00000E+000	6.45500E-002	-1.18621E-004	10	...........	-327.56
	3096	1548.5	5.54649E-002	-4.69729E-003	0.00000E+000	5.55500E-002	-1.18021E-004	10	...........	-327.56
	3105	1553	4.64422E-002	-4.80137E-003	0.00000E+000	4.65500E-002	-1.18788E-004	10	...........	-327.56
	3114	1557.5	3.74961E-002	-4.89238E-003	0.00000E+000	3.75500E-002	-1.14555E-004	10	...........	-327.56
	3123	1562	2.84754E-002	-4.99934E-003	0.00000E+000	2.85500E-002	-1.15921E-004	10	...........	-327.56
	3132	1566.5	1.94444E-002	-5.10616E-003	0.00000E+000	1.95500E-002	-1.14621E-004	10	...........	-327.56
	3141	1571	1.04907E-002	-5.21020E-003	0.00000E+000	1.05500E-002	-1.19488E-004	10	...........	-327.56
	3150	1575.5	1.52015E-003	-5.34614E-003	0.00000E+000	1.55002E-003	-1.20855E-004	10	...........	-327.56
	3159	1580	-7.31496E-003	-5.46720E-003	0.00000E+000	-7.44995E-003	-1.20188E-004	10	...........	-327.56
	3168	1584.5	-1.62496E-002	-5.57908E-003	0.00000E+000	-1.64500E-002	-1.21221E-004	10	...........	-327.56
	3177	1589	-2.52797E-002	-5.71854E-003	0.00000E+000	-2.54500E-002	-1.19055E-004	10	...........	-327.56
	3186	1593.5	-3.43153E-002	-5.84423E-003	0.00000E+000	-3.44500E-002	-1.17621E-004	10	...........	-327.56
	3195	1598	-4.32504E-002	-5.95253E-003	0.00000E+000	-4.34500E-002	-1.20421E-004	10	...........	-327.56
	3204	1602.5	-5.22652E-002	-6.05538E-003	0.00000E+000	-5.24500E-002	-1.18421E-004	10	...........	-327.56
	3213	1607	-6.13064E-002	-6.12774E-003	0.00000E+000	-6.14500E-002	-1.20221E-004	10	...........	-327.56
	3222	1611.5	-7.02105E-002	-6.17760E-003	0.00000E+000	-7.04500E-002	-1.19221E-004	10	...........	-327.56
	3231	1616	-7.92730E-002	-6.21120E-003	0.00000E+000	-7.94500E-002	-1.19788E-004	10	...........	-327.56
	3240	1620.5	-8.82711E-002	-6.23943E-003	0.00000E+000	-8.84500E-002	-1.20355E-004	10	...........	-327.56
	3249	1625	-9.72026E-002	-6.27884E-003	0.00000E+000	-9.74500E-002	-1.15621E-004	10	...........	-327.56
	3258	1629.5	-1.06180E-001	-6.31917E-003	0.00000E+000	-1.06450E-001	-1.18155E-004	10	...........	-327.56
	3267	1634	-1.15165E-001	-6.37442E-003	0.00000E+000	-1.15450E-001	-1.17288E-004	10	...........	-327.56
	3276	1638.5	-1.24133E-001	-6.39823E-003	0.00000E+000	-1.24450E-001	-1.13621E-004	10	...........	-327.56
	3285	1643	-1.33201E-001	-6.41679E-003	0.00000E+000	-1.33450E-001	-1.17155E-004	10	...........	-327.56
	3294	1647.5	-1.42117E-001	-6.38500E-003	0.00000E+000	-1.42450E-001	-1.19088E-004	10	...........	-327.56
	3303	1652	-1.51143E-001	-6.41699E-003	0.00000E+000	-1.51450E-001	-1.22588E-004	10	...........	-327.56
	3312	1656.5	-1.60113E-001	-6.45867E-003	0.00000E+000	-1.60450E-001	-1.21388E-004	10	...........	-327.56
	3321	1661	-1.69099E-001	-6.52438E-003	0.00000E+000	-1.69450E-001	-1.15021E-004	10	...........	-327.56
	3330	1665.5	-1.78124E-001	-6.58923E-003	0.00000E+000	-1.78450E-001	-1.20588E-004	10	...........	-327.56
	3339	1670	-1.87173E-001	-6.66525E-003	0.00000E+000	-1.87450E-001	-1.21055E-004	10	...........	-327.56
[...]
	11071	5536	5.18198E-001	1.97314E-002	0.00000E+000	5.19000E-001	-1.13921E-004	10	...........	-327.56
	11077	5539	5.24187E-001	1.94869E-002	0.00000E+000	5.25000E-001	-1.17755E-004	10	...........	-327.56
	11083	5542	5.30134E-001	1.91299E-002	0.00000E+000	5.31000E-001	-1.17088E-004	10	...........	-327.56
	11089	5545	5.36160E-001	1.87319E-002	0.00000E+000	5.37000E-001	-1.16788E-004	10	...........	-327.56
	11095	5548	5.42204E-001	1.84772E-002	0.00000E+000	5.43000E-001	-1.16588E-004	10	...........	-327.56
	11101	5551	5.48199E-001	1.81823E-002	0.00000E+000	5.49000E-001	-1.21788E-004	10	...........	-327.56
	11107	5554	5.54131E-001	1.78650E-002	0.00000E+000	5.55000E-001	-1.18288E-004	10	...........	-327.56
	11113	5557	5.60156E-001	1.75935E-002	0.00000E+000	5.61000E-001	-1.20055E-004	10	...........	-327.56
	11119	5560	5.66195E-001	1.74507E-002	0.00000E+000	5.67000E-001	-1.20355E-004	10	...........	-327.56
	11125	5563	5.72191E-001	1.73771E-002	0.00000E+000	5.73000E-001	-1.20621E-004	10	...........	-327.56
	11131	5566	5.78094E-001	1.70141E-002	0.00000E+000	5.79000E-001	-1.18688E-004	10	...........	-327.56
	11137	5569	5.84148E-001	1.66820E-002	0.00000E+000	5.85000E-001	-1.21221E-004	10	...........	-327.56
	11143	5572	5.90184E-001	1.67429E-002	0.00000E+000	5.91000E-001	-1.17355E-004	10	...........	-327.56
	11149	5575	5.96175E-001	1.67710E-002	0.00000E+000	5.97000E-001	-1.20888E-004	10	...........	-327.56
	11155	5578	6.02078E-001	1.66103E-002	0.00000E+000	6.03000E-001	-1.19688E-004	10	...........	-327.56
	11161	5581	6.08117E-001	1.63510E-002	0.00000E+000	6.09000E-001	-1.21988E-004	10	...........	-327.56
	11167	5584	6.14131E-001	1.62188E-002	0.00000E+000	6.15000E-001	-1.17455E-004	10	...........	-327.56
	11173	5587	6.20169E-001	1.62682E-002	0.00000E+000	6.21000E-001	-1.20121E-004	10	...........	-327.56
	11179	5590	6.26168E-001	1.62968E-002	0.00000E+000	6.27000E-001	-1.18555E-004	10	...........	-327.56
	11185	5593	6.32099E-001	1.59719E-002	0.00000E+000	6.33000E-001	-1.19255E-004	10	...........	-327.56
	11191	5596	6.38101E-001	1.59488E-002	0.00000E+000	6.39000E-001	-1.22688E-004	10	...........	-327.56
	11197	5599	6.44145E-001	1.59070E-002	0.00000E+000	6.45000E-001	-1.23155E-004	10	...........	-327.56
	11203	5602	6.50154E-001	1.56227E-002	0.00000E+000	6.51000E-001	-1.14788E-004	10	...........	-327.56
	11209	5605	6.56047E-001	1.56090E-002	0.00000E+000	6.57000E-001	-1.20655E-004	10	...........	-327.56
	11215	5608	6.62096E-001	1.56598E-002	0.00000E+000	6.63000E-001	-1.17655E-004	10	...........	-327.56
	11221	5611	6.68111E-001	1.57912E-002	0.00000E+000	6.69000E-001	-1.18088E-004	10	...........	-327.56
	11227	5614	6.74138E-001	1.54618E-002	0.00000E+000	6.75000E-001	-1.17655E-004	10	...........	-327.56
	11233	5617	6.79997E-001	1.54556E-002	0.00000E+000	6.81000E-001	-1.19555E-004	10	...........	-327.56
	11239	5620	6.86058E-001	1.55361E-002	0.00000E+000	6.87000E-001	-1.15855E-004	10	...........	-327.56
	11245	5623	6.92082E-001	1.53979E-002	0.00000E+000	6.93000E-001	-1.19955E-004	10	...........	-327.56
	11251	5626	6.98119E-001	1.54091E-002	0.00000E+000	6.99000E-001	-1.18455E-004	10	...........	-327.56
	11257	5629	7.04079E-001	1.54935E-002	0.00000E+000	7.05000E-001	-1.19021E-004	10	...........	-327.56
	11263	5632	7.10042E-001	1.52678E-002	0.00000E+000	7.11000E-001	-1.20988E-004	10	...........	-327.56
	11269	5635	7.16056E-001	1.52260E-002	0.00000E+000	7.17000E-001	-1.21321E-004	10	...........	-327.56
	11275	5638	7.22065E-001	1.50681E-002	0.00000E+000	7.23000E-001	-1.17455E-004	10	...........	-327.56
	11281	5641	7.28067E-001	1.50742E-002	0.00000E+000	7.29000E-001	-1.22288E-004	10	...........	-327.56
	11287	5644	7.33979E-001	1.50126E-002	0.00000E+000	7.35000E-001	-1.19388E-004	10	...........	-327.56
	11293	5647	7.40003E-001	1.52187E-002	0.00000E+000	7.41000E-001	-1.19688E-004	10	...........	-327.56
	11299	5650	7.46051E-001	1.52301E-002	0.00000E+000	7.47000E-001	-1.15421E-004	10	...........	-327.56
	11305	5653	7.52053E-001	1.48526E-002	0.00000E+000	7.53000E-001	-1.17755E-004	10	...........	-327.56
	11311	5656	7.57968E-001	1.47955E-002	0.00000E+000	7.59000E-001	-1.19588E-004	10	...........	-327.56
	11317	5659	7.63994E-001	1.47198E-002	0.00000E+000	7.65000E-001	-1.19355E-004	10	...........	-327.56
	11323	5662	7.70016E-001	1.49026E-002	0.00000E+000	7.71000E-001	-1.19921E-004	10	...........	-327.56
	11329	5665	7.76038E-001	1.48261E-002	0.00000E+000	7.77000E-001	-1.20521E-004	10	...........	-327.56
	11335	5668	7.81936E-001	1.50177E-002	0.00000E+000	7.83000E-001	-1.19388E-004	10	...........	-327.56
	11341	5671	7.87954E-001	1.49563E-002	0.00000E+000	7.89000E-001	-1.15655E-004	10	...........	-327.56
	11347	5674	7.93984E-001	1.50932E-002	0.00000E+000	7.95000E-001	-1.16988E-004	10	...........	-327.56
	11353	5677	8.00005E-001	1.49597E-002	0.00000E+000	8.01000E-001	-1.20321E-004	10	...........	-327.56
	11359	5680	8.06001E-001	1.50707E-002	0.00000E+000	8.07000E-001	-1.16455E-004	10	...........	-327.56
	11365	5683	8.11952E-001	1.51570E-002	0.00000E+000	8.13000E-001	-1.16188E-004	10	...........	-327.56
	11371	5686	8.17967E-001	1.51013E-002	0.00000E+000	8.19000E-001	-1.17988E-004	10	...........	-327.56
	11377	5689	8.23953E-001	1.52271E-002	0.00000E+000	8.25000E-001	-1.21588E-004	10	...........	-327.56
	11383	5692	8.29942E-001	1.53261E-002	0.00000E+000	8.31000E-001	-1.16688E-004	10	...........	-327.56
	11389	5695	8.35875E-001	1.53411E-002	0.00000E+000	8.37000E-001	-1.14955E-004	10	...........	-327.56
	11395	5698	8.41909E-001	1.54013E-002	0.00000E+000	8.43000E-001	-1.15555E-004	10	...........	-327.56
	11401	5701	8.47953E-001	1.54412E-002	0.00000E+000	8.49000E-001	-1.19321E-004	10	...........	-327.56
	11407	5704	8.53938E-001	1.53806E-002	0.00000E+000	8.55000E-001	-1.15455E-004	10	...........	-327.56
	11413	5707	8.59844E-001	1.55068E-002	0.00000E+000	8.61000E-001	-1.16521E-004	10	...........	-327.56
	11419	5710	8.65890E-001	1.56722E-002	0.00000E+000	8.67000E-001	-1.17321E-004	10	...........	-327.56
	11425	5713	8.71929E-001	1.56221E-002	0.00000E+000	8.73000E-001	-1.17521E-004	10	...........	-327.56
	11431	5716	8.77930E-001	1.56169E-002	0.00000E+000	8.79000E-001	-1.19388E-004	10	...........	-327.56
	11437	5719	8.83829E-001	1.57394E-002	0.00000E+000	8.85000E-001	-1.15455E-004	10	...........	-327.56
	11443	5722	8.89861E-001	1.56840E-002	0.00000E+000	8.91000E-001	-1.19055E-004	10	...........	-327.56
	11449	5725	8.95915E-001	1.57223E-002	0.00000E+000	8.97000E-001	-1.20055E-004	10	...........	-327.56
	11455	5728	9.01907E-001	1.53095E-002	0.00000E+000	9.03000E-001	-1.14721E-004	10	...........	-327.56
	11461	5731	9.07911E-001	1.53929E-002	0.00000E+000	9.09000E-001	-1.16221E-004	10	...........	-327.56
	11467	5734	9.13850E-001	1.54530E-002	0.00000E+000	9.15000E-001	-1.17288E-004	10	...........	-327.56
	11473	5737	9.19907E-001	1.53437E-002	0.00000E+000	9.21000E-001	-1.19621E-004	10	...........	-327.56
	11479	5740	9.25852E-001	1.53415E-002	0.00000E+000	9.27000E-001	-1.16055E-004	10	...........	-327.56
	11485	5743	9.31858E-001	1.52680E-002	0.00000E+000	9.33000E-001	-1.15521E-004	10	...........	-327.56
	11491	5746	9.37784E-001	1.55840E-002	0.00000E+000	9.39000E-001	-1.19288E-004	10	...........	-327.56
	11497	5749	9.43829E-001	1.57162E-002	0.00000E+000	9.45000E-001	-1.19688E-004	10	...........	-327.56
	11503	5752	9.49833E-001	1.57562E-002	0.00000E+000	9.51000E-001	-1.21121E-004	10	...........	-327.56
	11509	5755	9.55846E-001	1.57211E-002	0.00000E+000	9.57000E-001	-1.15921E-004	10	...........	-327.56
	11515	5758	9.61727E-001	1.58880E-002	0.00000E+000	9.63000E-001	-1.18688E-004	10	...........	-327.56
	11521	5761	9.67846E-001	1.57730E-002	0.00000E+000	9.69000E-001	-1.21421E-004	10	...........	-327.56
	11527	5764	9.73803E-001	1.58217E-002	0.00000E+000	9.75000E-001	-1.19955E-004	10	...........	-327.56
	11533	5767	9.79822E-001	1.61101E-002	0.00000E+000	9.81000E-001	-1.16655E-004	10	...........	-327.56
	11539	5770	9.85763E-001	1.60370E-002	0.00000E+000	9.87000E-001	-1.21188E-004	10	...........	-327.56
	11545	5773	9.91791E-001	1.61463E-002	0.00000E+000	9.93000E-001	-1.20088E-004	10	...........	-327.56
	11551	5776	9.97764E-001	1.64886E-002	0.00000E+000	9.99000E-001	-1.21088E-004	10	...........	-327.56
	11557	5779	1.00380E+000	1.64106E-002	0.00000E+000	1.00500E+000	-1.14121E-004	10	...........	-327.56
	11563	5782	1.00980E+000	1.65075E-002	0.00000E+000	1.01100E+000	-1.20021E-004	10	...........	-327.56
	11569	5785	1.01576E+000	1.66601E-002	0.00000E+000	1.01700E+000	-1.18455E-004	10	...........	-327.56
	11575	5788	1.02174E+000	1.68233E-002	0.00000E+000	1.02300E+000	-1.20821E-004	10	...........	-327.56
	11581	5791	1.02776E+000	1.69654E-002	0.00000E+000	1.02900E+000	-1.16155E-004	10	...........	-327.56
	11587	5794	1.03377E+000	1.70010E-002	0.00000E+000	1.03500E+000	-1.17121E-004	10	...........	-327.56
	11593	5797	1.03967E+000	1.71788E-002	0.00000E+000	1.04100E+000	-1.20721E-004	10	...........	-327.56
	11599	5800	1.04567E+000	1.74802E-002	0.00000E+000	1.04700E+000	-1.19755E-004	10	...........	-327.56
	11605	5803	1.05172E+000	1.74530E-002	0.00000E+000	1.05300E+000	-1.18655E-004	10	...........	-327.56
	11611	5806	1.05774E+000	1.75120E-002	0.00000E+000	1.05900E+000	-1.19088E-004	10	...........	-327.56
	11617	5809	1.06364E+000	1.75696E-002	0.00000E+000	1.06500E+000	-1.20788E-004	10	...........	-327.56
	11623	5812	1.06967E+000	1.76810E-002	0.00000E+000	1.07100E+000	-1.22888E-004	10	...........	-327.56
	11629	5815	1.07567E+000	1.79090E-002	0.00000E+000	1.07700E+000	-1.15721E-004	10	...........	-327.56
	11635	5818	1.08172E+000	1.79439E-002	0.00000E+000	1.08300E+000	-1.19621E-004	10	...........	-327.56
	11641	5821	1.08769E+000	1.81902E-002	0.00000E+000	1.08900E+000	-1.17121E-004	10	...........	-327.56
	11647	5824	1.09362E+000	1.81296E-002	0.00000E+000	1.09500E+000	-1.17555E-004	10	...........	-327.56
	11653	5827	1.09964E+000	1.81172E-002	0.00000E+000	1.10100E+000	-1.18455E-004	10	...........	-327.56
	11659	5830	1.10570E+000	1.82479E-002	0.00000E+000	1.10700E+000	-1.17755E-004	10	...........	-327.56
	11665	5833	1.11169E+000	1.81384E-002	0.00000E+000	1.11300E+000	-1.17055E-004	10	...........	-327.56
	11671	5836	1.11761E+000	1.80538E-002	0.00000E+000	1.11900E+000	-1.17055E-004	10	...........	-327.56
	11677	5839	1.12364E+000	1.79752E-002	0.00000E+000	1.12500E+000	-1.14221E-004	10	...........	-327.56
	11683	5842	1.12962E+000	1.77726E-002	0.00000E+000	1.13100E+000	-1.17921E-004	10	...........	-327.56
	11689	5845	1.13563E+000	1.78929E-002	0.00000E+000	1.13700E+000	-1.14921E-004	10	...........	-327.56
	11695	5848	1.14156E+000	1.79323E-002	0.00000E+000	1.14300E+000	-1.20188E-004	10	...........	-327.56
	11701	5851	1.14757E+000	1.80351E-002	0.00000E+000	1.14900E+000	-1.20288E-004	10	...........	-327.56
	11707	5854	1.15361E+000	1.76081E-002	0.00000E+000	1.15500E+000	-1.16888E-004	10	...........	-327.56
	11713	5857	1.15963E+000	1.75201E-002	0.00000E+000	1.16100E+000	-1.16821E-004	10	...........	-327.56
	11719	5860	1.16551E+000	1.76349E-002	0.00000E+000	1.16700E+000	-1.17255E-004	10	...........	-327.56
	11725	5863	1.17156E+000	1.76441E-002	0.00000E+000	1.17300E+000	-1.16455E-004	10	...........	-327.56
	11731	5866	1.17755E+000	1.77170E-002	0.00000E+000	1.17900E+000	-1.19321E-004	10	...........	-327.56
	11737	5869	1.18357E+000	1.79789E-002	0.00000E+000	1.18500E+000	-1.16888E-004	10	...........	-327.56
	11743	5872	1.18959E+000	1.77611E-002	0.00000E+000	1.19100E+000	-1.18921E-004	10	...........	-327.56
	11749	5875	1.19552E+000	1.80736E-002	0.00000E+000	1.19700E+000	-1.16521E-004	10	...........	-327.56
	11755	5878	1.20154E+000	1.82566E-002	0.00000E+000	1.20300E+000	-1.16921E-004	10	...........	-327.56
	11761	5881	1.20756E+000	1.84305E-002	0.00000E+000	1.20900E+000	-1.15355E-004	10	...........	-327.56
	11767	5884	1.21357E+000	1.80931E-002	0.00000E+000	1.21500E+000	-1.14221E-004	10	...........	-327.56
	11773	5887	1.21948E+000	1.81051E-002	0.00000E+000	1.22100E+000	-1.14455E-004	10	...........	-327.56
	11779	5890	1.22554E+000	1.83679E-002	0.00000E+000	1.22700E+000	-1.17221E-004	10	...........	-327.56
	11785	5893	1.23153E+000	1.88039E-002	0.00000E+000	1.23300E+000	-1.13921E-004	10	...........	-327.56
	11791	5896	1.23754E+000	1.96981E-002	0.00000E+000	1.23900E+000	-1.15788E-004	10	...........	-327.56
	11797	5899	1.24343E+000	2.07847E-002	0.00000E+000	1.24500E+000	-1.18355E-004	10	...........	-327.56
	11803	5902	1.24951E+000	2.17043E-002	0.00000E+000	1.25100E+000	-1.20188E-004	10	...........	-327.56
	11809	5905	1.25548E+000	2.24690E-002	0.00000E+000	1.25700E+000	-1.18555E-004	10	...........	-327.56
	11815	5908	1.26148E+000	2.36489E-002	0.00000E+000	1.26300E+000	-1.12888E-004	10	...........	-327.56
	11821	5911	1.26738E+000	2.51036E-002	0.00000E+000	1.26900E+000	-1.14588E-004	10	...........	-327.56
	11827	5914	1.27343E+000	2.70250E-002	0.00000E+000	1.27500E+000	-1.15921E-004	10	...........	-327.56
	11833	5917	1.27968E+000	2.91682E-002	0.00000E+000	1.28100E+000	-1.22455E-004	11	...........	-327.56
	11839	5920	1.28571E+000	3.15688E-002	0.00000E+000	1.28700E+000	-1.19488E-004	11	...........	-327.56
	11845	5923	1.29171E+000	3.39425E-002	0.00000E+000	1.29300E+000	-1.19188E-004	11	...........	-327.56
	11851	5926	1.29762E+000	3.77159E-002	0.00000E+000	1.29900E+000	-1.21321E-004	11	...........	-327.56
	11857	5929	1.30363E+000	4.15966E-002	0.00000E+000	1.30500E+000	-1.21088E-004	11	...........	-327.56
	11863	5932	1.30966E+000	4.54369E-002	0.00000E+000	1.31100E+000	-1.21755E-004	11	...........	-327.56
	11869	5935	1.31568E+000	4.96995E-002	0.00000E+000	1.31700E+000	-1.16521E-004	11	...........	-327.56
	11875	5938	1.32156E+000	5.54465E-002	0.00000E+000	1.32300E+000	-1.19655E-004	11	...........	-327.56
	11881	5941	1.32759E+000	6.23622E-002	0.00000E+000	1.32900E+000	-1.21121E-004	11	...........	-327.56
	11887	5944	1.33356E+000	6.98265E-002	0.00000E+000	1.33500E+000	-1.19255E-004	11	...........	-327.56
	11893	5947	1.33957E+000	7.77718E-002	0.00000E+000	1.34100E+000	-1.15888E-004	11	...........	-327.56
	11899	5950	1.34553E+000	8.51063E-002	0.00000E+000	1.34700E+000	-1.21388E-004	11	...........	-327.56
	11905	5953	1.35148E+000	9.03880E-002	0.00000E+000	1.35300E+000	-1.23555E-004	11	...........	-327.56
	11911	5956	1.35749E+000	9.72267E-002	0.00000E+000	1.35900E+000	-1.16721E-004	11	...........	-327.56
	11917	5959	1.36350E+000	1.03641E-001	0.00000E+000	1.36500E+000	-1.16855E-004	11	...........	-327.56
	11923	5962	1.36949E+000	1.09096E-001	0.00000E+000	1.37100E+000	-1.18721E-004	11	...........	-327.56
	11929	5965	1.37544E+000	1.03987E-001	0.00000E+000	1.37700E+000	-1.17488E-004	11	...........	-327.56
	11935	5968	1.38144E+000	1.05566E-001	0.00000E+000	1.38300E+000	-1.18421E-004	11	...........	-327.56
	11941	5971	1.38748E+000	1.08837E-001	0.00000E+000	1.38900E+000	-1.19088E-004	11	...........	-327.56
	11947	5974	1.39349E+000	1.15046E-001	0.00000E+000	1.39500E+000	-1.17355E-004	11	...........	-327.56
	11953	5977	1.39939E+000	1.23265E-001	0.00000E+000	1.40100E+000	-1.15621E-004	11	...........	-327.56
	11959	5980	1.40539E+000	1.32108E-001	0.00000E+000	1.40700E+000	-1.19221E-004	11	...........	-327.56
	11965	5983	1.41142E+000	1.41348E-001	0.00000E+000	1.41300E+000	-1.17488E-004	11	...........	-327.56
	11971	5986	1.41740E+000	1.60930E-001	0.00000E+000	1.41900E+000	-1.14321E-004	11	...........	-327.56
	11977	5989	1.42330E+000	1.60365E-001	0.00000E+000	1.42500E+000	-1.21155E-004	11	...........	-327.56
	11983	5992	1.42932E+000	1.69880E-001	0.00000E+000	1.43100E+000	-1.18888E-004	11	...........	-327.56
	11989	5995	1.43531E+000	1.74860E-001	0.00000E+000	1.43700E+000	-1.17155E-004	11	...........	-327.56
	11995	5998	1.44132E+000	1.77350E-001	0.00000E+000	1.44300E+000	-1.12621E-004	11	...........	-327.56
	12001	6001	1.44720E+000	1.85624E-001	0.00000E+000	1.44900E+000	-1.18521E-004	11	...........	-327.56
	12007	6004	1.45321E+000	1.99134E-001	0.00000E+000	1.45500E+000	-1.16388E-004	11	...........	-327.56
	12013	6007	1.45921E+000	2.07069E-001	0.00000E+000	1.46100E+000	-1.16121E-004	11	...........	-327.56
	12019	6010	1.46524E+000	2.14272E-001	0.00000E+000	1.46700E+000	-1.17421E-004	11	...........	-327.56
	12025	6013	1.47122E+000	2.21632E-001	0.00000E+000	1.47300E+000	-1.14488E-004	11	...........	-327.56
	12031	6016	1.47715E+000	2.34797E-001	0.00000E+000	1.47900E+000	-1.13988E-004	11	...........	-327.56
	12037	6019	1.48314E+000	2.45224E-001	0.00000E+000	1.48500E+000	-1.15421E-004	11	...........	-327.56
	12043	6022	1.48913E+000	2.54593E-001	0.00000E+000	1.49100E+000	-1.11721E-004	11	...........	-327.56
	12049	6025	1.49514E+000	2.63665E-001	0.00000E+000	1.49700E+000	-1.12421E-004	11	...........	-327.56
	12055	6028	1.50135E+000	2.74441E-001	0.00000E+000	1.50300E+000	-1.18221E-004	12	...........	-327.56
	12061	6031	1.50738E+000	2.83180E-001	0.00000E+000	1.50900E+000	-1.22188E-004	12	...........	-327.56
	12067	6034	1.51341E+000	2.95452E-001	0.00000E+000	1.51500E+000	-1.16955E-004	12	...........	-327.56
	12073	6037	1.51939E+000	3.05785E-001	0.00000E+000	1.52100E+000	-1.21421E-004	12	...........	-327.56
	12079	6040	1.52528E+000	3.12972E-001	0.00000E+000	1.52700E+000	-1.21021E-004	12	...........	-327.56
	12085	6043	1.53131E+000	3.21588E-001	0.00000E+000	1.53300E+000	-1.20121E-004	12	...........	-327.56
	12091	6046	1.53728E+000	3.33314E-001	0.00000E+000	1.53900E+000	-1.19288E-004	12	...........	-327.56
	12097	6049	1.54330E+000	3.48190E-001	0.00000E+000	1.54500E+000	-1.21355E-004	12	...........	-327.56
	12103	6052	1.54919E+000	3.52565E-001	0.00000E+000	1.55100E+000	-1.18855E-004	12	...........	-327.56
	12109	6055	1.55521E+000	3.60253E-001	0.00000E+000	1.55700E+000	-1.19121E-004	12	...........	-327.56
	12115	6058	1.56121E+000	3.73911E-001	0.00000E+000	1.56300E+000	-1.21755E-004	12	...........	-327.56
	12121	6061	1.56725E+000	3.88415E-001	0.00000E+000	1.56900E+000	-1.22721E-004	12	...........	-327.56
	12127	6064	1.57325E+000	4.01982E-001	0.00000E+000	1.57500E+000	-1.18321E-004	12	...........	-327.56
	12133	6067	1.57917E+000	4.06576E-001	0.00000E+000	1.58100E+000	-1.20488E-004	12	...........	-327.56
	12139	6070	1.58518E+000	4.23978E-001	0.00000E+000	1.58700E+000	-1.18755E-004	12	...........	-327.56
	12145	6073	1.59119E+000	4.35627E-001	0.00000E+000	1.59300E+000	-1.20588E-004	12	...........	-327.56
	12151	6076	1.59722E+000	4.46924E-001	0.00000E+000	1.59900E+000	-1.16588E-004	12	...........	-327.56
	12157	6079	1.60314E+000	4.57774E-001	0.00000E+000	1.60500E+000	-1.18688E-004	12	...........	-327.56
	12163	6082	1.60911E+000	4.72854E-001	0.00000E+000	1.61100E+000	-1.20421E-004	12	...........	-327.56
	12169	6085	1.61515E+000	4.86193E-001	0.00000E+000	1.61700E+000	-1.12521E-004	12	...........	-327.56
	12175	6088	1.62116E+000	5.01950E-001	0.00000E+000	1.62300E+000	-1.20055E-004	12	...........	-327.56
	12181	6091	1.62712E+000	5.13279E-001	0.00000E+000	1.62900E+000	-1.24055E-004	12	...........	-327.56
	12187	6094	1.63308E+000	5.29245E-001	0.00000E+000	1.63500E+000	-1.21521E-004	12	...........	-327.56
	12193	6097	1.63911E+000	5.40062E-001	0.00000E+000	1.64100E+000	-1.19121E-004	12	...........	-327.56
	12199	6100	1.64508E+000	5.52204E-001	0.00000E+000	1.64700E+000	-1.17221E-004	12	...........	-327.56
	12205	6103	1.65109E+000	5.64314E-001	0.00000E+000	1.65300E+000	-1.18421E-004	12	...........	-327.56
	12211	6106	1.65702E+000	5.73011E-001	0.00000E+000	1.65900E+000	-1.18888E-004	12	...........	-327.56
	12217	6109	1.66301E+000	5.87986E-001	0.00000E+000	1.66500E+000	-1.17655E-004	12	...........	-327.56
	12223	6112	1.66905E+000	6.00193E-001	0.00000E+000	1.67100E+000	-1.20055E-004	12	...........	-327.56
	12229	6115	1.67505E+000	6.14075E-001	0.00000E+000	1.67700E+000	-1.21388E-004	12	...........	-327.56
	12235	6118	1.68096E+000	6.27890E-001	0.00000E+000	1.68300E+000	-1.21788E-004	12	...........	-327.56
	12241	6121	1.68698E+000	6.39066E-001	0.00000E+000	1.68900E+000	-1.19388E-004	12	...........	-327.56
	12247	6124	1.69299E+000	6.67958E-001	0.00000E+000	1.69500E+000	-1.18488E-004	12	...........	-327.56
	12252	6126.5	1.69798E+000	6.67924E-001	0.00000E+000	1.70000E+000	-1.19488E-004	12	...........	-327.56