File: testing/data/240902_17_MCL13_cswWE_CV20_750C_CO2.DTA
EXPLAIN
TAG	CV
TITLE	LABEL	Cyclic Voltammetry	Test Identifier
DATE	LABEL	9/3/2024	Date
TIME	LABEL	17:13:27	Time
NOTES	NOTES	5	Notes...
	cswWE - carbon steel wire
cspWE - carbon steel plate 2x2 tapered

Carbon steel plate counter electrode
Carbon steel wire reference electrode
PSTAT	PSTAT	REF3000-48128	Potentiostat
VINIT	POTEN	0.00000E+000	T	Initial E (V)
VLIMIT1	POTEN	1.70000E+000	F	Scan Limit 1 (V)
VLIMIT2	POTEN	-1.00000E+000	F	Scan Limit 2 (V)
VFINAL	POTEN	1.70000E+000	F	Final E (V)
SCANRATE	QUANT	2.00000E+001	Scan Rate (mV/s)
STEPSIZE	QUANT	1.00000E+000	Step Size (mV)
CYCLES	IQUANT	6	Cycles (#)
IMODE	SELECTOR	0	I/E Range Mode
IRANGE	QUANT	3.00000E-001	Max Current (mA)
AREA	QUANT	1.00000E+000	Sample Area (cm^2)
EQDELAY	QUANT	0.00000E+000	Equil. Time (s)
IRCOMP	SELECTOR	0	IRComp
PFCOR	QUANT	5.00000E+001	PF Corr. (ohm)
SAMPLINGMODE	SELECTOR	1	Sampling Mode
EOC	QUANT	0.2646424	Open Circuit (V)
ELECTRODETYPE	SELECTOR	0	Electrode Type
STRIPPING	TOGGLE	F	Used for Stripping
SEQUENCER	TOGGLE	TRUE	Run as Sequence
PSTATMODEL	IQUANT	5	Pstat Model
PSTATSECTION	LABEL	REF3000-48128	Pstat Section
PSTATSERIALNO	LABEL	48128	Pstat Serial Number
CTRLMODE	IQUANT	1	Control Mode
ELECTROMETER	IQUANT	0	RE=0 or CS=1
IESTAB	IQUANT	2	I/E Stability
CASPEED	IQUANT	4	Control Amp Speed
CONVENTION	IQUANT	1	Current Convention
ICHRANGE	IQUANT	2	Ich Range
ICHRANGEMODE	TOGGLE	F	Ich Auto Range
ICHOFFSETENABLE	TOGGLE	F	Ich Offset Enable
ICHOFFSET	QUANT	0	Ich Offset (V)
ICHFILTER	IQUANT	2	Ich Filter
VCHRANGE	IQUANT	2	Vch Range
VCHRANGEMODE	TOGGLE	F	Vch Auto Range
VCHOFFSETENABLE	TOGGLE	F	Vch Offset Enable
VCHOFFSET	QUANT	0	Vch Offset (V)
VCHFILTER	IQUANT	2	Vch Filter
ACHRANGE	IQUANT	2	Ach Range
ACHOFFSETENABLE	TOGGLE	F	Ach Offset Enable
ACHOFFSET	QUANT	0	Ach Offset (V)
ACHFILTER	IQUANT	1	Ach Filter
IERANGELOWERLIMIT	IQUANT	2	I/E Range Lower Limit
IERANGEMODE	TOGGLE	T	I/E AutoRange
IERANGE	IQUANT	9	I/E Range
POSFEEDENABLE	TOGGLE	F	Positive Feedback IR Comp
POSFEEDRESISTANCE	QUANT	0	Positive Feedback Resistance (ohm)
ACHSELECT	IQUANT	4	Ach Select
SENSECABLEID	IQUANT	14	Sense Cable ID
PWRCABLEID	IQUANT	7	Power Cable ID
DCCALDATE	LABEL	8/16/2024	DC Calibration Date
ACCALDATE	LABEL	8/16/2024	AC Calibration Date
THERMOSELECT	IQUANT	1	Thermo Select
FRAMEWORKVERSION	LABEL	7.10.3	Framework Version
INSTRUMENTVERSION	LABEL	4.91	Instrument Version
COMMVERSION	LABEL	5.10	Communications Version
CPUPLDVERSION	LABEL	6.00	CPU PLD Version
CTRLPLDVERSION	LABEL	3.21	CTRL PLD Version
PSTATPLDVERSION	LABEL	0.00	PSTAT PLD Version
COMPLIANCEVOLTAGE	IQUANT	0	Compliance Voltage
CURVE1	TABLE
	Pt	T	Vf	Im	Vu	Sig	Ach	IERange	Over	Temp
	#	s	V vs. Ref.	A	V	V	V	#	bits	deg C
	0	0.05	2.64209E-001	9.89234E-004	0.00000E+000	2.64650E-001	-1.05221E-004	9	...........	-327.56
	9	0.5	2.72976E-001	2.19927E-003	0.00000E+000	2.73650E-001	-1.15221E-004	9	...........	-327.56
	18	0.95	2.82241E-001	3.58268E-003	0.00000E+000	2.82650E-001	-1.13555E-004	10	...........	-327.56
	27	1.4	2.91246E-001	4.99448E-003	0.00000E+000	2.91650E-001	-1.04221E-004	10	...........	-327.56
	36	1.85	3.00189E-001	6.50369E-003	0.00000E+000	3.00650E-001	-1.18555E-004	10	...........	-327.56
	45	2.3	3.09144E-001	7.92958E-003	0.00000E+000	3.09650E-001	-1.15555E-004	10	...........	-327.56
	54	2.75	3.18144E-001	9.54015E-003	0.00000E+000	3.18650E-001	-1.06221E-004	10	...........	-327.56
	63	3.2	3.27049E-001	1.11868E-002	0.00000E+000	3.27650E-001	-1.21221E-004	10	...........	-327.56
	72	3.65	3.36080E-001	1.29909E-002	0.00000E+000	3.36650E-001	-1.03888E-004	10	...........	-327.56
	81	4.1	3.45011E-001	1.54067E-002	0.00000E+000	3.45650E-001	-1.08221E-004	10	...........	-327.56
	90	4.55	3.53945E-001	1.77516E-002	0.00000E+000	3.54650E-001	-1.12555E-004	10	...........	-327.56
	99	5	3.62983E-001	1.95235E-002	0.00000E+000	3.63650E-001	-1.09555E-004	10	...........	-327.56
	108	5.45	3.71851E-001	2.06201E-002	0.00000E+000	3.72650E-001	-1.07221E-004	10	...........	-327.56
	117	5.9	3.80898E-001	2.09709E-002	0.00000E+000	3.81650E-001	-1.18221E-004	10	...........	-327.56
	126	6.35	3.89927E-001	2.06953E-002	0.00000E+000	3.90650E-001	-1.14555E-004	10	...........	-327.56
	135	6.8	3.98847E-001	2.00483E-002	0.00000E+000	3.99650E-001	-1.08888E-004	10	...........	-327.56
	144	7.25	4.07928E-001	1.92308E-002	0.00000E+000	4.08650E-001	-1.17221E-004	10	...........	-327.56
	153	7.7	4.16949E-001	1.82395E-002	0.00000E+000	4.17650E-001	-1.19555E-004	10	...........	-327.56
	162	8.15	4.25902E-001	1.72241E-002	0.00000E+000	4.26650E-001	-1.10888E-004	10	...........	-327.56
	171	8.6	4.34955E-001	1.60932E-002	0.00000E+000	4.35650E-001	-1.16221E-004	10	...........	-327.56
	180	9.05	4.44000E-001	1.53369E-002	0.00000E+000	4.44650E-001	-1.18888E-004	10	...........	-327.56
	189	9.5	4.52957E-001	1.45871E-002	0.00000E+000	4.53650E-001	-1.12888E-004	10	...........	-327.56
	198	9.95	4.61976E-001	1.39233E-002	0.00000E+000	4.62650E-001	-1.01555E-004	10	...........	-327.56
	207	10.4	4.71008E-001	1.33605E-002	0.00000E+000	4.71650E-001	-1.09221E-004	10	...........	-327.56
	216	10.85	4.79944E-001	1.28741E-002	0.00000E+000	4.80650E-001	-1.13888E-004	10	...........	-327.56
	225	11.3	4.88988E-001	1.24140E-002	0.00000E+000	4.89650E-001	-1.17221E-004	10	...........	-327.56
	234	11.75	4.98007E-001	1.20496E-002	0.00000E+000	4.98650E-001	-1.05555E-004	10	...........	-327.56
	243	12.2	5.06970E-001	1.17101E-002	0.00000E+000	5.07650E-001	-1.07221E-004	10	...........	-327.56
	252	12.65	5.15928E-001	1.14115E-002	0.00000E+000	5.16650E-001	-1.04888E-004	10	...........	-327.56
	261	13.1	5.24903E-001	1.11102E-002	0.00000E+000	5.25650E-001	-1.14888E-004	10	...........	-327.56
	270	13.55	5.33897E-001	1.08763E-002	0.00000E+000	5.34650E-001	-1.11888E-004	10	...........	-327.56
	279	14	5.42957E-001	1.05450E-002	0.00000E+000	5.43650E-001	-1.12555E-004	10	...........	-327.56
	288	14.45	5.51918E-001	1.03808E-002	0.00000E+000	5.52650E-001	-1.06555E-004	10	...........	-327.56
	297	14.9	5.60906E-001	1.01376E-002	0.00000E+000	5.61650E-001	-1.13555E-004	10	...........	-327.56
	306	15.35	5.69939E-001	9.86420E-003	0.00000E+000	5.70650E-001	-1.09555E-004	10	...........	-327.56
	315	15.8	5.78845E-001	9.72009E-003	0.00000E+000	5.79650E-001	-1.24555E-004	10	...........	-327.56
	324	16.25	5.87885E-001	9.45214E-003	0.00000E+000	5.88650E-001	-1.07888E-004	10	...........	-327.56
	333	16.7	5.96932E-001	9.27299E-003	0.00000E+000	5.97650E-001	-1.10221E-004	10	...........	-327.56
	342	17.15	6.05862E-001	9.14176E-003	0.00000E+000	6.06650E-001	-1.13888E-004	10	...........	-327.56
	351	17.6	6.14873E-001	9.00800E-003	0.00000E+000	6.15650E-001	-1.11221E-004	10	...........	-327.56
	360	18.05	6.23910E-001	8.92982E-003	0.00000E+000	6.24650E-001	-1.05888E-004	10	...........	-327.56
	369	18.5	6.32823E-001	8.74392E-003	0.00000E+000	6.33650E-001	-1.04221E-004	10	...........	-327.56
	378	18.95	6.41882E-001	8.61936E-003	0.00000E+000	6.42650E-001	-1.03221E-004	10	...........	-327.56
	387	19.4	6.50892E-001	8.47145E-003	0.00000E+000	6.51650E-001	-1.10888E-004	10	...........	-327.56
	396	19.85	6.59827E-001	8.49567E-003	0.00000E+000	6.60650E-001	-1.01555E-004	10	...........	-327.56
	405	20.3	6.68876E-001	8.29505E-003	0.00000E+000	6.69650E-001	-1.11221E-004	10	...........	-327.56
	414	20.75	6.77848E-001	8.26486E-003	0.00000E+000	6.78650E-001	-1.11888E-004	10	...........	-327.56
	423	21.2	6.86813E-001	8.15332E-003	0.00000E+000	6.87650E-001	-1.17888E-004	10	...........	-327.56
	432	21.65	6.95906E-001	8.20604E-003	0.00000E+000	6.96650E-001	-1.22888E-004	10	...........	-327.56
	441	22.1	7.04736E-001	8.13153E-003	0.00000E+000	7.05650E-001	-1.20221E-004	10	...........	-327.56
	450	22.55	7.13817E-001	8.06147E-003	0.00000E+000	7.14650E-001	-1.12888E-004	10	...........	-327.56
	459	23	7.22811E-001	8.06282E-003	0.00000E+000	7.23650E-001	-1.31555E-004	10	...........	-327.56
	468	23.45	7.31729E-001	8.09063E-003	0.00000E+000	7.32650E-001	-1.24555E-004	10	...........	-327.56
	477	23.9	7.40757E-001	8.11623E-003	0.00000E+000	7.41650E-001	-1.14555E-004	10	...........	-327.56
	486	24.35	7.49785E-001	8.16573E-003	0.00000E+000	7.50650E-001	-1.16888E-004	10	...........	-327.56
	495	24.8	7.58720E-001	8.18628E-003	0.00000E+000	7.59650E-001	-1.25555E-004	10	...........	-327.56
	504	25.25	7.67766E-001	8.21042E-003	0.00000E+000	7.68650E-001	-1.13221E-004	10	...........	-327.56
	513	25.7	7.76766E-001	8.20335E-003	0.00000E+000	7.77650E-001	-1.15888E-004	10	...........	-327.56
	522	26.15	7.85704E-001	8.32280E-003	0.00000E+000	7.86650E-001	-1.26555E-004	10	...........	-327.56
	531	26.6	7.94733E-001	8.41705E-003	0.00000E+000	7.95650E-001	-1.20221E-004	10	...........	-327.56
	540	27.05	8.03767E-001	8.46990E-003	0.00000E+000	8.04650E-001	-1.29555E-004	10	...........	-327.56
	549	27.5	8.12724E-001	8.52610E-003	0.00000E+000	8.13650E-001	-1.28888E-004	10	...........	-327.56
	558	27.95	8.21666E-001	8.57411E-003	0.00000E+000	8.22650E-001	-1.25555E-004	10	...........	-327.56
	567	28.4	8.30694E-001	8.73585E-003	0.00000E+000	8.31650E-001	-1.20888E-004	10	...........	-327.56
	576	28.85	8.39623E-001	8.67075E-003	0.00000E+000	8.40650E-001	-1.21555E-004	10	...........	-327.56
	585	29.3	8.48663E-001	8.89275E-003	0.00000E+000	8.49650E-001	-1.21555E-004	10	...........	-327.56
	594	29.75	8.57649E-001	9.04850E-003	0.00000E+000	8.58650E-001	-1.17555E-004	10	...........	-327.56
	603	30.2	8.66625E-001	9.06677E-003	0.00000E+000	8.67650E-001	-1.22221E-004	10	...........	-327.56
	612	30.65	8.75663E-001	9.25990E-003	0.00000E+000	8.76650E-001	-1.21555E-004	10	...........	-327.56
	621	31.1	8.84660E-001	9.27855E-003	0.00000E+000	8.85650E-001	-1.21221E-004	10	...........	-327.56
	630	31.55	8.93597E-001	9.42982E-003	0.00000E+000	8.94650E-001	-1.16888E-004	10	...........	-327.56
	639	32	9.02644E-001	9.59551E-003	0.00000E+000	9.03650E-001	-1.14221E-004	10	...........	-327.56
	648	32.45	9.11551E-001	9.71883E-003	0.00000E+000	9.12650E-001	-1.24888E-004	10	...........	-327.56
	657	32.9	9.20575E-001	9.94351E-003	0.00000E+000	9.21650E-001	-1.19888E-004	10	...........	-327.56
	666	33.35	9.29561E-001	1.02580E-002	0.00000E+000	9.30650E-001	-1.33555E-004	10	...........	-327.56
	675	33.8	9.38501E-001	1.02757E-002	0.00000E+000	9.39650E-001	-1.19221E-004	10	...........	-327.56
	684	34.25	9.47524E-001	1.04676E-002	0.00000E+000	9.48650E-001	-1.16555E-004	10	...........	-327.56
	693	34.7	9.56559E-001	1.06621E-002	0.00000E+000	9.57650E-001	-1.23888E-004	10	...........	-327.56
	702	35.15	9.65483E-001	1.08438E-002	0.00000E+000	9.66650E-001	-1.13555E-004	10	...........	-327.56
	711	35.6	9.74501E-001	1.11529E-002	0.00000E+000	9.75650E-001	-1.17555E-004	10	...........	-327.56
	720	36.05	9.83503E-001	1.14089E-002	0.00000E+000	9.84650E-001	-1.32888E-004	10	...........	-327.56
	729	36.5	9.92453E-001	1.18171E-002	0.00000E+000	9.93650E-001	-1.13888E-004	10	...........	-327.56
	738	36.95	1.00151E+000	1.20341E-002	0.00000E+000	1.00265E+000	-1.30888E-004	10	...........	-327.56
	747	37.4	1.01048E+000	1.24908E-002	0.00000E+000	1.01165E+000	-1.27555E-004	10	...........	-327.56
	756	37.85	1.01944E+000	1.30334E-002	0.00000E+000	1.02065E+000	-1.29555E-004	10	...........	-327.56
	765	38.3	1.02845E+000	1.34190E-002	0.00000E+000	1.02965E+000	-1.29221E-004	10	...........	-327.56
	774	38.75	1.03734E+000	1.39302E-002	0.00000E+000	1.03865E+000	-1.13888E-004	10	...........	-327.56
	783	39.2	1.04638E+000	1.46757E-002	0.00000E+000	1.04765E+000	-1.22555E-004	10	...........	-327.56
	792	39.65	1.05541E+000	1.53136E-002	0.00000E+000	1.05665E+000	-1.21221E-004	10	...........	-327.56
	801	40.1	1.06432E+000	1.59006E-002	0.00000E+000	1.06565E+000	-1.21888E-004	10	...........	-327.56
	810	40.55	1.07338E+000	1.65757E-002	0.00000E+000	1.07465E+000	-1.25888E-004	10	...........	-327.56
	819	41	1.08236E+000	1.74289E-002	0.00000E+000	1.08365E+000	-1.21555E-004	10	...........	-327.56
	828	41.45	1.09129E+000	1.83287E-002	0.00000E+000	1.09265E+000	-1.26888E-004	10	...........	-327.56
	837	41.9	1.10029E+000	1.92416E-002	0.00000E+000	1.10165E+000	-1.24221E-004	10	...........	-327.56
	846	42.35	1.10932E+000	2.01964E-002	0.00000E+000	1.11065E+000	-1.17555E-004	10	...........	-327.56
	855	42.8	1.11830E+000	2.13184E-002	0.00000E+000	1.11965E+000	-1.20221E-004	10	...........	-327.56
	864	43.25	1.12719E+000	2.23184E-002	0.00000E+000	1.12865E+000	-1.10888E-004	10	...........	-327.56
	873	43.7	1.13622E+000	2.35540E-002	0.00000E+000	1.13765E+000	-1.20888E-004	10	...........	-327.56
	882	44.15	1.14514E+000	2.51165E-002	0.00000E+000	1.14665E+000	-1.16555E-004	10	...........	-327.56
	891	44.6	1.15415E+000	2.67287E-002	0.00000E+000	1.15565E+000	-1.20888E-004	10	...........	-327.56
	900	45.05	1.16346E+000	2.86721E-002	0.00000E+000	1.16465E+000	-1.26221E-004	11	...........	-327.56
	909	45.5	1.17238E+000	3.02793E-002	0.00000E+000	1.17365E+000	-1.18888E-004	11	...........	-327.56
	918	45.95	1.18143E+000	3.28537E-002	0.00000E+000	1.18265E+000	-1.23221E-004	11	...........	-327.56
	927	46.4	1.19040E+000	3.53942E-002	0.00000E+000	1.19165E+000	-1.19555E-004	11	...........	-327.56
	936	46.85	1.19936E+000	3.84601E-002	0.00000E+000	1.20065E+000	-1.24888E-004	11	...........	-327.56
	945	47.3	1.20839E+000	4.15991E-002	0.00000E+000	1.20965E+000	-1.25555E-004	11	...........	-327.56
	954	47.75	1.21734E+000	4.46624E-002	0.00000E+000	1.21865E+000	-1.26555E-004	11	...........	-327.56
	963	48.2	1.22632E+000	4.86553E-002	0.00000E+000	1.22765E+000	-1.21555E-004	11	...........	-327.56
	972	48.65	1.23538E+000	5.28604E-002	0.00000E+000	1.23665E+000	-1.17555E-004	11	...........	-327.56
	981	49.1	1.24428E+000	5.73493E-002	0.00000E+000	1.24565E+000	-1.24888E-004	11	...........	-327.56
	990	49.55	1.25331E+000	6.14506E-002	0.00000E+000	1.25465E+000	-1.18221E-004	11	...........	-327.56
	999	50	1.26234E+000	6.65473E-002	0.00000E+000	1.26365E+000	-1.24221E-004	11	...........	-327.56
	1008	50.45	1.27125E+000	7.16890E-002	0.00000E+000	1.27265E+000	-1.10555E-004	11	...........	-327.56
	1017	50.9	1.28026E+000	7.66988E-002	0.00000E+000	1.28165E+000	-1.26221E-004	11	...........	-327.56
	1026	51.35	1.28931E+000	8.23579E-002	0.00000E+000	1.29065E+000	-1.23555E-004	11	...........	-327.56
	1035	51.8	1.29821E+000	8.86880E-002	0.00000E+000	1.29965E+000	-1.28555E-004	11	...........	-327.56
	1044	52.25	1.30724E+000	9.54590E-002	0.00000E+000	1.30865E+000	-1.21888E-004	11	...........	-327.56
	1053	52.7	1.31622E+000	1.02252E-001	0.00000E+000	1.31765E+000	-1.21555E-004	11	...........	-327.56
	1062	53.15	1.32516E+000	1.09409E-001	0.00000E+000	1.32665E+000	-1.17555E-004	11	...........	-327.56
	1071	53.6	1.33417E+000	1.16423E-001	0.00000E+000	1.33565E+000	-1.20221E-004	11	...........	-327.56
	1080	54.05	1.34314E+000	1.24089E-001	0.00000E+000	1.34465E+000	-1.33555E-004	11	...........	-327.56
	1089	54.5	1.35209E+000	1.30295E-001	0.00000E+000	1.35365E+000	-1.21555E-004	11	...........	-327.56
	1098	54.95	1.36111E+000	1.36558E-001	0.00000E+000	1.36265E+000	-1.22555E-004	11	...........	-327.56
	1107	55.4	1.37000E+000	1.43363E-001	0.00000E+000	1.37165E+000	-1.16888E-004	11	...........	-327.56
	1116	55.85	1.37909E+000	1.51819E-001	0.00000E+000	1.38065E+000	-1.27888E-004	11	...........	-327.56
	1125	56.3	1.38804E+000	1.60157E-001	0.00000E+000	1.38965E+000	-1.14555E-004	11	...........	-327.56
	1134	56.75	1.39695E+000	1.68175E-001	0.00000E+000	1.39865E+000	-1.20888E-004	11	...........	-327.56
	1143	57.2	1.40596E+000	1.77160E-001	0.00000E+000	1.40765E+000	-1.30221E-004	11	...........	-327.56
	1152	57.65	1.41500E+000	1.86764E-001	0.00000E+000	1.41665E+000	-1.13555E-004	11	...........	-327.56
	1161	58.1	1.42393E+000	1.96659E-001	0.00000E+000	1.42565E+000	-1.18888E-004	11	...........	-327.56
	1170	58.55	1.43291E+000	2.06744E-001	0.00000E+000	1.43465E+000	-1.14888E-004	11	...........	-327.56
	1179	59	1.44192E+000	2.17656E-001	0.00000E+000	1.44365E+000	-1.21888E-004	11	...........	-327.56
	1188	59.45	1.45081E+000	2.28120E-001	0.00000E+000	1.45265E+000	-1.23221E-004	11	...........	-327.56
	1197	59.9	1.45983E+000	2.38840E-001	0.00000E+000	1.46165E+000	-1.12555E-004	11	...........	-327.56
	1206	60.35	1.46885E+000	2.49798E-001	0.00000E+000	1.47065E+000	-1.21888E-004	11	...........	-327.56
	1215	60.8	1.47777E+000	2.60526E-001	0.00000E+000	1.47965E+000	-1.15888E-004	11	...........	-327.56
	1224	61.25	1.48706E+000	2.70770E-001	0.00000E+000	1.48865E+000	-1.17221E-004	12	...........	-327.56
	1233	61.7	1.49607E+000	2.82552E-001	0.00000E+000	1.49765E+000	-1.26888E-004	12	...........	-327.56
	1242	62.15	1.50501E+000	2.93248E-001	0.00000E+000	1.50665E+000	-1.25555E-004	12	...........	-327.56
	1251	62.6	1.51405E+000	3.02862E-001	0.00000E+000	1.51565E+000	-1.25888E-004	12	...........	-327.56
	1260	63.05	1.52304E+000	3.13025E-001	0.00000E+000	1.52465E+000	-1.19555E-004	12	...........	-327.56
	1269	63.5	1.53195E+000	3.24656E-001	0.00000E+000	1.53365E+000	-1.26221E-004	12	...........	-327.56
	1278	63.95	1.54097E+000	3.35459E-001	0.00000E+000	1.54265E+000	-1.34888E-004	12	...........	-327.56
	1287	64.4	1.54986E+000	3.43918E-001	0.00000E+000	1.55165E+000	-1.23221E-004	12	...........	-327.56
	1296	64.85	1.55890E+000	3.56940E-001	0.00000E+000	1.56065E+000	-1.21221E-004	12	...........	-327.56
	1305	65.3	1.56792E+000	3.69702E-001	0.00000E+000	1.56965E+000	-1.19555E-004	12	...........	-327.56
	1314	65.75	1.57680E+000	3.81515E-001	0.00000E+000	1.57865E+000	-1.26888E-004	12	...........	-327.56
	1323	66.2	1.58587E+000	3.93314E-001	0.00000E+000	1.58765E+000	-1.25221E-004	12	...........	-327.56
	1332	66.65	1.59487E+000	3.98786E-001	0.00000E+000	1.59665E+000	-1.19221E-004	12	...........	-327.56
	1341	67.1	1.60378E+000	4.28909E-001	0.00000E+000	1.60565E+000	-1.24555E-004	12	...........	-327.56
	1350	67.55	1.61281E+000	4.39862E-001	0.00000E+000	1.61465E+000	-1.09221E-004	12	...........	-327.56
	1359	68	1.62183E+000	4.34551E-001	0.00000E+000	1.62365E+000	-1.29221E-004	12	...........	-327.56
	1368	68.45	1.63076E+000	4.55159E-001	0.00000E+000	1.63265E+000	-1.16221E-004	12	...........	-327.56
	1377	68.9	1.63984E+000	4.55670E-001	0.00000E+000	1.64165E+000	-1.25221E-004	12	...........	-327.56
	1386	69.35	1.64877E+000	4.74316E-001	0.00000E+000	1.65065E+000	-1.25221E-004	12	...........	-327.56
	1395	69.8	1.65773E+000	4.98169E-001	0.00000E+000	1.65965E+000	-1.23555E-004	12	...........	-327.56
	1404	70.25	1.66675E+000	5.00230E-001	0.00000E+000	1.66865E+000	-1.21555E-004	12	...........	-327.56
	1413	70.7	1.67576E+000	5.11164E-001	0.00000E+000	1.67765E+000	-1.15888E-004	12	...........	-327.56
	1422	71.15	1.68472E+000	5.39123E-001	0.00000E+000	1.68665E+000	-1.24221E-004	12	...........	-327.56
	1431	71.6	1.69373E+000	5.30177E-001	0.00000E+000	1.69565E+000	-1.19888E-004	12	...........	-327.56
	1440	72.05	1.69273E+000	5.32197E-001	0.00000E+000	1.69465E+000	-1.18888E-004	12	...........	-327.56
	1449	72.5	1.68367E+000	5.43065E-001	0.00000E+000	1.68565E+000	-1.19221E-004	12	...........	-327.56
	1458	72.95	1.67473E+000	5.34501E-001	0.00000E+000	1.67665E+000	-1.19221E-004	12	...........	-327.56
	1467	73.4	1.66576E+000	5.06627E-001	0.00000E+000	1.66765E+000	-1.20555E-004	12	...........	-327.56
	1476	73.85	1.65669E+000	4.98398E-001	0.00000E+000	1.65865E+000	-1.12888E-004	12	...........	-327.56
	1485	74.3	1.64778E+000	4.91720E-001	0.00000E+000	1.64965E+000	-1.24555E-004	12	...........	-327.56
	1494	74.75	1.63877E+000	4.95119E-001	0.00000E+000	1.64065E+000	-1.18555E-004	12	...........	-327.56
	1503	75.2	1.62976E+000	4.69920E-001	0.00000E+000	1.63165E+000	-1.26888E-004	12	...........	-327.56
	1512	75.65	1.62083E+000	4.57660E-001	0.00000E+000	1.62265E+000	-1.25888E-004	12	...........	-327.56
	1521	76.1	1.61180E+000	4.60359E-001	0.00000E+000	1.61365E+000	-1.20888E-004	12	...........	-327.56
	1530	76.55	1.60277E+000	4.40657E-001	0.00000E+000	1.60465E+000	-1.27888E-004	12	...........	-327.56
	1539	77	1.59385E+000	4.53315E-001	0.00000E+000	1.59565E+000	-1.20888E-004	12	...........	-327.56
	1548	77.45	1.58485E+000	4.28739E-001	0.00000E+000	1.58665E+000	-1.24221E-004	12	...........	-327.56
	1557	77.9	1.57588E+000	4.09011E-001	0.00000E+000	1.57765E+000	-1.19888E-004	12	...........	-327.56
	1566	78.35	1.56692E+000	3.99195E-001	0.00000E+000	1.56865E+000	-1.10221E-004	12	...........	-327.56
	1575	78.8	1.55787E+000	3.88005E-001	0.00000E+000	1.55965E+000	-1.24221E-004	12	...........	-327.56
	1584	79.25	1.54889E+000	3.77195E-001	0.00000E+000	1.55065E+000	-1.26888E-004	12	...........	-327.56
	1593	79.7	1.53993E+000	3.67950E-001	0.00000E+000	1.54165E+000	-1.24888E-004	12	...........	-327.56
	1602	80.15	1.53100E+000	3.57616E-001	0.00000E+000	1.53265E+000	-1.22555E-004	12	...........	-327.56
	1611	80.6	1.52202E+000	3.46857E-001	0.00000E+000	1.52365E+000	-1.10221E-004	12	...........	-327.56
	1620	81.05	1.51302E+000	3.35928E-001	0.00000E+000	1.51465E+000	-1.29888E-004	12	...........	-327.56
	1629	81.5	1.50397E+000	3.25553E-001	0.00000E+000	1.50565E+000	-1.27888E-004	12	...........	-327.56
	1638	81.95	1.49504E+000	3.14238E-001	0.00000E+000	1.49665E+000	-1.16221E-004	12	...........	-327.56
	1647	82.4	1.48604E+000	3.04215E-001	0.00000E+000	1.48765E+000	-1.23888E-004	12	...........	-327.56
	1656	82.85	1.47703E+000	2.93433E-001	0.00000E+000	1.47865E+000	-1.13221E-004	12	...........	-327.56
	1665	83.3	1.46810E+000	2.83255E-001	0.00000E+000	1.46965E+000	-1.25555E-004	12	...........	-327.56
	1674	83.75	1.45909E+000	2.72475E-001	0.00000E+000	1.46065E+000	-1.20555E-004	12	...........	-327.56
	1683	84.2	1.45003E+000	2.62448E-001	0.00000E+000	1.45165E+000	-1.25555E-004	12	...........	-327.56
	1692	84.65	1.44112E+000	2.53610E-001	0.00000E+000	1.44265E+000	-1.28555E-004	12	...........	-327.56
	1701	85.1	1.43211E+000	2.43302E-001	0.00000E+000	1.43365E+000	-1.18555E-004	12	...........	-327.56
	1710	85.55	1.42283E+000	2.31950E-001	0.00000E+000	1.42465E+000	-1.20221E-004	11	...........	-327.56
	1719	86	1.41392E+000	2.21821E-001	0.00000E+000	1.41565E+000	-1.32888E-004	11	...........	-327.56
	1728	86.45	1.40490E+000	2.12885E-001	0.00000E+000	1.40665E+000	-1.19888E-004	11	...........	-327.56
	1737	86.9	1.39587E+000	2.02756E-001	0.00000E+000	1.39765E+000	-1.30221E-004	11	...........	-327.56
	1746	87.35	1.38702E+000	1.93251E-001	0.00000E+000	1.38865E+000	-1.28888E-004	11	...........	-327.56
	1755	87.8	1.37798E+000	1.83844E-001	0.00000E+000	1.37965E+000	-1.16888E-004	11	...........	-327.56
	1764	88.25	1.36903E+000	1.74784E-001	0.00000E+000	1.37065E+000	-1.11555E-004	11	...........	-327.56
	1773	88.7	1.36003E+000	1.65338E-001	0.00000E+000	1.36165E+000	-1.21221E-004	11	...........	-327.56
	1782	89.15	1.35101E+000	1.56598E-001	0.00000E+000	1.35265E+000	-1.18888E-004	11	...........	-327.56
	1791	89.6	1.34210E+000	1.47329E-001	0.00000E+000	1.34365E+000	-1.20888E-004	11	...........	-327.56
	1800	90.05	1.33311E+000	1.38248E-001	0.00000E+000	1.33465E+000	-1.18221E-004	11	...........	-327.56
	1809	90.5	1.32413E+000	1.30005E-001	0.00000E+000	1.32565E+000	-1.18221E-004	11	...........	-327.56
	1818	90.95	1.31519E+000	1.22100E-001	0.00000E+000	1.31665E+000	-1.13555E-004	11	...........	-327.56
	1827	91.4	1.30618E+000	1.13452E-001	0.00000E+000	1.30765E+000	-1.24888E-004	11	...........	-327.56
	1836	91.85	1.29717E+000	1.05747E-001	0.00000E+000	1.29865E+000	-1.11888E-004	11	...........	-327.56
	1845	92.3	1.28827E+000	9.80204E-002	0.00000E+000	1.28965E+000	-1.16888E-004	11	...........	-327.56
	1854	92.75	1.27923E+000	9.04495E-002	0.00000E+000	1.28065E+000	-1.21555E-004	11	...........	-327.56
	1863	93.2	1.27031E+000	8.27806E-002	0.00000E+000	1.27165E+000	-1.35888E-004	11	...........	-327.56
	1872	93.65	1.26131E+000	7.54237E-002	0.00000E+000	1.26265E+000	-1.13555E-004	11	...........	-327.56
	1881	94.1	1.25229E+000	6.86391E-002	0.00000E+000	1.25365E+000	-1.30555E-004	11	...........	-327.56
	1890	94.55	1.24328E+000	6.19735E-002	0.00000E+000	1.24465E+000	-1.32221E-004	11	...........	-327.56
	1899	95	1.23436E+000	5.59852E-002	0.00000E+000	1.23565E+000	-1.18888E-004	11	...........	-327.56
	1908	95.45	1.22535E+000	5.03984E-002	0.00000E+000	1.22665E+000	-1.18221E-004	11	...........	-327.56
	1917	95.9	1.21629E+000	4.51183E-002	0.00000E+000	1.21765E+000	-1.19221E-004	11	...........	-327.56
	1926	96.35	1.20739E+000	4.03358E-002	0.00000E+000	1.20865E+000	-1.19555E-004	11	...........	-327.56
	1935	96.8	1.19836E+000	3.60620E-002	0.00000E+000	1.19965E+000	-1.26888E-004	11	...........	-327.56
	1944	97.25	1.18943E+000	3.20435E-002	0.00000E+000	1.19065E+000	-1.14555E-004	11	...........	-327.56
	1953	97.7	1.18041E+000	2.86739E-002	0.00000E+000	1.18165E+000	-1.33555E-004	11	...........	-327.56
	1962	98.15	1.17140E+000	2.54191E-002	0.00000E+000	1.17265E+000	-1.18221E-004	11	...........	-327.56
	1971	98.6	1.16222E+000	2.26644E-002	0.00000E+000	1.16365E+000	-1.15221E-004	10	...........	-327.56
	1980	99.05	1.15322E+000	2.03527E-002	0.00000E+000	1.15465E+000	-1.10221E-004	10	...........	-327.56
	1989	99.5	1.14421E+000	1.83502E-002	0.00000E+000	1.14565E+000	-1.16221E-004	10	...........	-327.56
	1998	99.95	1.13531E+000	1.66836E-002	0.00000E+000	1.13665E+000	-1.25221E-004	10	...........	-327.56
	2007	100.4	1.12634E+000	1.54164E-002	0.00000E+000	1.12765E+000	-1.24555E-004	10	...........	-327.56
	2016	100.85	1.11733E+000	1.43333E-002	0.00000E+000	1.11865E+000	-1.12888E-004	10	...........	-327.56
	2025	101.3	1.10841E+000	1.33209E-002	0.00000E+000	1.10965E+000	-1.16221E-004	10	...........	-327.56
	2034	101.75	1.09938E+000	1.26619E-002	0.00000E+000	1.10065E+000	-1.24888E-004	10	...........	-327.56
	2043	102.2	1.09033E+000	1.19879E-002	0.00000E+000	1.09165E+000	-1.18555E-004	10	...........	-327.56
	2052	102.65	1.08146E+000	1.16345E-002	0.00000E+000	1.08265E+000	-1.21221E-004	10	...........	-327.56
	2061	103.1	1.07241E+000	1.12834E-002	0.00000E+000	1.07365E+000	-1.15888E-004	10	...........	-327.56
	2070	103.55	1.06336E+000	1.10673E-002	0.00000E+000	1.06465E+000	-1.20555E-004	10	...........	-327.56
	2079	104	1.05448E+000	1.09225E-002	0.00000E+000	1.05565E+000	-1.20888E-004	10	...........	-327.56
	2088	104.45	1.04542E+000	1.07451E-002	0.00000E+000	1.04665E+000	-1.14888E-004	10	...........	-327.56
	2097	104.9	1.03649E+000	1.05731E-002	0.00000E+000	1.03765E+000	-1.22888E-004	10	...........	-327.56
	2106	105.35	1.02748E+000	1.05103E-002	0.00000E+000	1.02865E+000	-1.17221E-004	10	...........	-327.56
	2115	105.8	1.01846E+000	1.04946E-002	0.00000E+000	1.01965E+000	-1.30555E-004	10	...........	-327.56
	2124	106.25	1.00952E+000	1.04397E-002	0.00000E+000	1.01065E+000	-1.20555E-004	10	...........	-327.56
	2133	106.7	1.00051E+000	1.04139E-002	0.00000E+000	1.00165E+000	-1.14221E-004	10	...........	-327.56
	2142	107.15	9.91472E-001	1.03583E-002	0.00000E+000	9.92650E-001	-1.25221E-004	10	...........	-327.56
	2151	107.6	9.82535E-001	1.03455E-002	0.00000E+000	9.83650E-001	-1.16555E-004	10	...........	-327.56
	2160	108.05	9.73511E-001	1.02831E-002	0.00000E+000	9.74650E-001	-1.19555E-004	10	...........	-327.56
	2169	108.5	9.64519E-001	1.02767E-002	0.00000E+000	9.65650E-001	-1.29888E-004	10	...........	-327.56
	2178	108.95	9.55572E-001	1.02319E-002	0.00000E+000	9.56650E-001	-1.14888E-004	10	...........	-327.56
	2187	109.4	9.46512E-001	1.01669E-002	0.00000E+000	9.47650E-001	-1.22888E-004	10	...........	-327.56
	2196	109.85	9.37527E-001	1.01601E-002	0.00000E+000	9.38650E-001	-1.25221E-004	10	...........	-327.56
	2205	110.3	9.28588E-001	1.02262E-002	0.00000E+000	9.29650E-001	-1.20221E-004	10	...........	-327.56
	2214	110.75	9.19578E-001	1.00752E-002	0.00000E+000	9.20650E-001	-1.17221E-004	10	...........	-327.56
	2223	111.2	9.10554E-001	1.00014E-002	0.00000E+000	9.11650E-001	-1.11555E-004	10	...........	-327.56
	2232	111.65	9.01619E-001	9.98371E-003	0.00000E+000	9.02650E-001	-1.17555E-004	10	...........	-327.56
	2241	112.1	8.92648E-001	9.96607E-003	0.00000E+000	8.93650E-001	-1.14221E-004	10	...........	-327.56
	2250	112.55	8.83551E-001	9.89770E-003	0.00000E+000	8.84650E-001	-1.15888E-004	10	...........	-327.56
	2259	113	8.74638E-001	9.82359E-003	0.00000E+000	8.75650E-001	-1.20221E-004	10	...........	-327.56
	2268	113.45	8.65622E-001	9.81596E-003	0.00000E+000	8.66650E-001	-1.19221E-004	10	...........	-327.56
	2277	113.9	8.56678E-001	9.77564E-003	0.00000E+000	8.57650E-001	-1.13888E-004	10	...........	-327.56
	2286	114.35	8.47658E-001	9.67021E-003	0.00000E+000	8.48650E-001	-1.18221E-004	10	...........	-327.56
	2295	114.8	8.38626E-001	9.57699E-003	0.00000E+000	8.39650E-001	-1.17888E-004	10	...........	-327.56
	2304	115.25	8.29688E-001	9.43976E-003	0.00000E+000	8.30650E-001	-1.20888E-004	10	...........	-327.56
	2313	115.7	8.20705E-001	9.32919E-003	0.00000E+000	8.21650E-001	-1.33221E-004	10	...........	-327.56
	2322	116.15	8.11692E-001	9.25903E-003	0.00000E+000	8.12650E-001	-1.12888E-004	10	...........	-327.56
	2331	116.6	8.02728E-001	9.15251E-003	0.00000E+000	8.03650E-001	-1.22888E-004	10	...........	-327.56
	2340	117.05	7.93727E-001	8.95825E-003	0.00000E+000	7.94650E-001	-1.15888E-004	10	...........	-327.56
	2349	117.5	7.84696E-001	8.82288E-003	0.00000E+000	7.85650E-001	-1.21221E-004	10	...........	-327.56
	2358	117.95	7.75786E-001	8.64837E-003	0.00000E+000	7.76650E-001	-1.21555E-004	10	...........	-327.56
	2367	118.4	7.66731E-001	8.43634E-003	0.00000E+000	7.67650E-001	-1.15555E-004	10	...........	-327.56
	2376	118.85	7.57710E-001	8.21662E-003	0.00000E+000	7.58650E-001	-1.30221E-004	10	...........	-327.56
	2385	119.3	7.48795E-001	7.98044E-003	0.00000E+000	7.49650E-001	-1.27555E-004	10	...........	-327.56
	2394	119.75	7.39767E-001	7.74750E-003	0.00000E+000	7.40650E-001	-1.20888E-004	10	...........	-327.56
	2403	120.2	7.30734E-001	7.49685E-003	0.00000E+000	7.31650E-001	-1.25221E-004	10	...........	-327.56
	2412	120.65	7.21834E-001	7.23320E-003	0.00000E+000	7.22650E-001	-1.17888E-004	10	...........	-327.56
	2421	121.1	7.12808E-001	6.99511E-003	0.00000E+000	7.13650E-001	-1.20888E-004	10	...........	-327.56
	2430	121.55	7.03888E-001	6.71357E-003	0.00000E+000	7.04650E-001	-1.26888E-004	10	...........	-327.56
	2439	122	6.94879E-001	6.45650E-003	0.00000E+000	6.95650E-001	-1.13888E-004	10	...........	-327.56
	2448	122.45	6.85842E-001	6.19701E-003	0.00000E+000	6.86650E-001	-1.27221E-004	10	...........	-327.56
	2457	122.9	6.76905E-001	5.94194E-003	0.00000E+000	6.77650E-001	-1.28221E-004	10	...........	-327.56
	2466	123.35	6.67901E-001	5.68090E-003	0.00000E+000	6.68650E-001	-1.25221E-004	10	...........	-327.56
	2475	123.8	6.58864E-001	5.43919E-003	0.00000E+000	6.59650E-001	-1.26221E-004	10	...........	-327.56
	2484	124.25	6.49945E-001	5.19287E-003	0.00000E+000	6.50650E-001	-1.18888E-004	10	...........	-327.56
	2493	124.7	6.40913E-001	4.93021E-003	0.00000E+000	6.41650E-001	-1.16221E-004	10	...........	-327.56
	2502	125.15	6.31926E-001	4.66537E-003	0.00000E+000	6.32650E-001	-1.20555E-004	10	...........	-327.56
	2511	125.6	6.22972E-001	4.28005E-003	0.00000E+000	6.23650E-001	-1.18221E-004	10	...........	-327.56
	2520	126.05	6.13938E-001	4.19799E-003	0.00000E+000	6.14650E-001	-1.25555E-004	10	...........	-327.56
	2529	126.5	6.04914E-001	3.89950E-003	0.00000E+000	6.05650E-001	-1.18888E-004	10	...........	-327.56
	2538	126.95	5.95998E-001	3.50169E-003	0.00000E+000	5.96650E-001	-1.17555E-004	10	...........	-327.56
	2547	127.4	5.86992E-001	3.36370E-003	0.00000E+000	5.87650E-001	-1.11221E-004	10	...........	-327.56
	2556	127.85	5.77932E-001	2.97739E-003	0.00000E+000	5.78650E-001	-1.23221E-004	10	...........	-327.56
	2565	128.3	5.69015E-001	2.67701E-003	0.00000E+000	5.69650E-001	-1.20555E-004	10	...........	-327.56
	2574	128.75	5.59728E-001	2.41275E-003	0.00000E+000	5.60650E-001	-1.28888E-004	9	...........	-327.56
	2583	129.2	5.50747E-001	1.96338E-003	0.00000E+000	5.51650E-001	-1.27221E-004	9	...........	-327.56
	2592	129.65	5.41854E-001	1.66606E-003	0.00000E+000	5.42650E-001	-1.21888E-004	9	...........	-327.56
	2601	130.1	5.32863E-001	1.41347E-003	0.00000E+000	5.33650E-001	-1.22221E-004	9	...........	-327.56
	2610	130.55	5.23951E-001	1.02985E-003	0.00000E+000	5.24650E-001	-1.21888E-004	9	...........	-327.56
	2619	131	5.15031E-001	5.74495E-004	0.00000E+000	5.15650E-001	-1.23221E-004	9	...........	-327.56
	2628	131.45	5.06060E-001	2.04297E-004	0.00000E+000	5.06650E-001	-1.12555E-004	9	...........	-327.56
	2637	131.9	4.97424E-001	-2.29208E-004	0.00000E+000	4.97650E-001	-1.23888E-004	8	.....h.....	-327.56
	2646	132.35	4.88217E-001	-7.27159E-004	0.00000E+000	4.88650E-001	-1.15221E-004	9	...........	-327.56
	2655	132.8	4.79223E-001	-1.16350E-003	0.00000E+000	4.79650E-001	-1.14888E-004	9	...........	-327.56
	2664	133.25	4.70353E-001	-1.61613E-003	0.00000E+000	4.70650E-001	-1.20221E-004	9	...........	-327.56
	2673	133.7	4.61404E-001	-2.18789E-003	0.00000E+000	4.61650E-001	-1.17888E-004	9	...........	-327.56
	2682	134.15	4.52459E-001	-2.65768E-003	0.00000E+000	4.52650E-001	-1.10221E-004	9	...........	-327.56
	2691	134.6	4.43225E-001	-3.27170E-003	0.00000E+000	4.43650E-001	-1.21888E-004	10	...........	-327.56
	2700	135.05	4.34194E-001	-4.01541E-003	0.00000E+000	4.34650E-001	-1.19555E-004	10	...........	-327.56
	2709	135.5	4.25164E-001	-4.46443E-003	0.00000E+000	4.25650E-001	-1.24888E-004	10	...........	-327.56
	2718	135.95	4.16272E-001	-4.95774E-003	0.00000E+000	4.16650E-001	-1.20221E-004	10	...........	-327.56
	2727	136.4	4.07231E-001	-5.54696E-003	0.00000E+000	4.07650E-001	-1.19221E-004	10	...........	-327.56
	2736	136.85	3.98290E-001	-6.32170E-003	0.00000E+000	3.98650E-001	-1.27221E-004	10	...........	-327.56
	2745	137.3	3.89300E-001	-6.68831E-003	0.00000E+000	3.89650E-001	-1.29888E-004	10	...........	-327.56
	2754	137.75	3.80253E-001	-7.26961E-003	0.00000E+000	3.80650E-001	-1.26221E-004	10	...........	-327.56
	2763	138.2	3.71279E-001	-7.81008E-003	0.00000E+000	3.71650E-001	-1.23888E-004	10	...........	-327.56
	2772	138.65	3.62325E-001	-8.45839E-003	0.00000E+000	3.62650E-001	-1.20221E-004	10	...........	-327.56
	2781	139.1	3.53330E-001	-8.96857E-003	0.00000E+000	3.53650E-001	-1.18555E-004	10	...........	-327.56
	2790	139.55	3.44390E-001	-9.61509E-003	0.00000E+000	3.44650E-001	-1.19888E-004	10	...........	-327.56
	2799	140	3.35376E-001	-1.02595E-002	0.00000E+000	3.35650E-001	-1.22888E-004	10	...........	-327.56
	2808	140.45	3.26343E-001	-1.08799E-002	0.00000E+000	3.26650E-001	-1.22888E-004	10	...........	-327.56
	2817	140.9	3.17414E-001	-1.13841E-002	0.00000E+000	3.17650E-001	-1.17888E-004	10	...........	-327.56
	2826	141.35	3.08394E-001	-1.20891E-002	0.00000E+000	3.08650E-001	-1.19555E-004	10	...........	-327.56
	2835	141.8	2.99418E-001	-1.26471E-002	0.00000E+000	2.99650E-001	-1.31555E-004	10	...........	-327.56
	2844	142.25	2.90491E-001	-1.31286E-002	0.00000E+000	2.90650E-001	-1.14888E-004	10	...........	-327.56
	2853	142.7	2.81494E-001	-1.33568E-002	0.00000E+000	2.81650E-001	-1.29221E-004	10	...........	-327.56
	2862	143.15	2.72418E-001	-1.37970E-002	0.00000E+000	2.72650E-001	-1.21221E-004	10	...........	-327.56
	2871	143.6	2.63511E-001	-1.38563E-002	0.00000E+000	2.63650E-001	-1.22888E-004	10	...........	-327.56
	2880	144.05	2.54488E-001	-1.39389E-002	0.00000E+000	2.54650E-001	-1.28555E-004	10	...........	-327.56
	2889	144.5	2.45444E-001	-1.36188E-002	0.00000E+000	2.45650E-001	-1.16221E-004	10	...........	-327.56
	2898	144.95	2.36530E-001	-1.31103E-002	0.00000E+000	2.36650E-001	-1.20555E-004	10	...........	-327.56
	2907	145.4	2.27473E-001	-1.26729E-002	0.00000E+000	2.27650E-001	-1.20555E-004	10	...........	-327.56
	2916	145.85	2.18416E-001	-1.22759E-002	0.00000E+000	2.18650E-001	-1.19555E-004	10	...........	-327.56
	2925	146.3	2.09531E-001	-1.20901E-002	0.00000E+000	2.09650E-001	-1.16555E-004	10	...........	-327.56
	2934	146.75	2.00485E-001	-1.18935E-002	0.00000E+000	2.00650E-001	-1.11888E-004	10	...........	-327.56
	2943	147.2	1.91511E-001	-1.16000E-002	0.00000E+000	1.91650E-001	-1.12555E-004	10	...........	-327.56
	2952	147.65	1.82543E-001	-1.14471E-002	0.00000E+000	1.82650E-001	-1.21221E-004	10	...........	-327.56
	2961	148.1	1.73491E-001	-1.12753E-002	0.00000E+000	1.73650E-001	-1.18221E-004	10	...........	-327.56
	2970	148.55	1.64568E-001	-1.11903E-002	0.00000E+000	1.64650E-001	-1.20555E-004	10	...........	-327.56
	2979	149	1.55536E-001	-1.11538E-002	0.00000E+000	1.55650E-001	-1.19221E-004	10	...........	-327.56
	2988	149.45	1.46513E-001	-1.11221E-002	0.00000E+000	1.46650E-001	-1.26888E-004	10	...........	-327.56
	2997	149.9	1.37562E-001	-1.11389E-002	0.00000E+000	1.37650E-001	-1.18221E-004	10	...........	-327.56
	3006	150.35	1.28542E-001	-1.10892E-002	0.00000E+000	1.28650E-001	-1.17221E-004	10	...........	-327.56
	3015	150.8	1.19512E-001	-1.11451E-002	0.00000E+000	1.19650E-001	-1.23221E-004	10	...........	-327.56
	3024	151.25	1.10590E-001	-1.11688E-002	0.00000E+000	1.10650E-001	-1.26888E-004	10	...........	-327.56
	3033	151.7	1.01598E-001	-1.12213E-002	0.00000E+000	1.01650E-001	-1.22555E-004	10	...........	-327.56
	3042	152.15	9.26451E-002	-1.13045E-002	0.00000E+000	9.26500E-002	-1.26221E-004	10	...........	-327.56
	3051	152.6	8.36558E-002	-1.13261E-002	0.00000E+000	8.36500E-002	-1.22888E-004	10	...........	-327.56
	3060	153.05	7.46021E-002	-1.14127E-002	0.00000E+000	7.46500E-002	-1.20888E-004	10	...........	-327.56
	3069	153.5	6.55766E-002	-1.14501E-002	0.00000E+000	6.56500E-002	-1.29555E-004	10	...........	-327.56
	3078	153.95	5.66586E-002	-1.14941E-002	0.00000E+000	5.66500E-002	-1.19221E-004	10	...........	-327.56
	3087	154.4	4.76286E-002	-1.16989E-002	0.00000E+000	4.76500E-002	-1.25888E-004	10	...........	-327.56
	3096	154.85	3.85889E-002	-1.17025E-002	0.00000E+000	3.86500E-002	-1.21555E-004	10	...........	-327.56
	3105	155.3	2.96788E-002	-1.18260E-002	0.00000E+000	2.96500E-002	-1.19221E-004	10	...........	-327.56
	3114	155.75	2.06996E-002	-1.19243E-002	0.00000E+000	2.06500E-002	-1.32888E-004	10	...........	-327.56
	3123	156.2	1.16861E-002	-1.20725E-002	0.00000E+000	1.16500E-002	-1.22221E-004	10	...........	-327.56
	3132	156.65	2.68044E-003	-1.21230E-002	0.00000E+000	2.65002E-003	-1.22555E-004	10	...........	-327.56
	3141	157.1	-6.12289E-003	-1.22998E-002	0.00000E+000	-6.34998E-003	-1.21555E-004	10	...........	-327.56
	3150	157.55	-1.50764E-002	-1.23950E-002	0.00000E+000	-1.53500E-002	-1.15555E-004	10	...........	-327.56
	3159	158	-2.40772E-002	-1.25374E-002	0.00000E+000	-2.43500E-002	-1.23221E-004	10	...........	-327.56
	3168	158.45	-3.31189E-002	-1.27439E-002	0.00000E+000	-3.33500E-002	-1.21888E-004	10	...........	-327.56
	3177	158.9	-4.20616E-002	-1.29397E-002	0.00000E+000	-4.23500E-002	-1.16555E-004	10	...........	-327.56
	3186	159.35	-5.10794E-002	-1.31589E-002	0.00000E+000	-5.13500E-002	-1.23221E-004	10	...........	-327.56
	3195	159.8	-6.00954E-002	-1.33960E-002	0.00000E+000	-6.03500E-002	-1.28888E-004	10	...........	-327.56
	3204	160.25	-6.90011E-002	-1.36029E-002	0.00000E+000	-6.93500E-002	-1.18888E-004	10	...........	-327.56
	3213	160.7	-7.80459E-002	-1.38545E-002	0.00000E+000	-7.83500E-002	-1.11888E-004	10	...........	-327.56
	3222	161.15	-8.70801E-002	-1.41426E-002	0.00000E+000	-8.73500E-002	-1.18555E-004	10	...........	-327.56
	3231	161.6	-9.60104E-002	-1.43777E-002	0.00000E+000	-9.63500E-002	-1.17888E-004	10	...........	-327.56
	3240	162.05	-1.04980E-001	-1.44658E-002	0.00000E+000	-1.05350E-001	-1.21888E-004	10	...........	-327.56
	3249	162.5	-1.14033E-001	-1.45170E-002	0.00000E+000	-1.14350E-001	-1.20888E-004	10	...........	-327.56
	3258	162.95	-1.22936E-001	-1.45111E-002	0.00000E+000	-1.23350E-001	-1.22888E-004	10	...........	-327.56
	3267	163.4	-1.31987E-001	-1.44730E-002	0.00000E+000	-1.32350E-001	-1.20221E-004	10	...........	-327.56
	3276	163.85	-1.40939E-001	-1.44260E-002	0.00000E+000	-1.41350E-001	-1.14221E-004	10	...........	-327.56
	3285	164.3	-1.49930E-001	-1.44039E-002	0.00000E+000	-1.50350E-001	-1.11888E-004	10	...........	-327.56
	3294	164.75	-1.58964E-001	-1.44074E-002	0.00000E+000	-1.59350E-001	-1.24221E-004	10	...........	-327.56
	3303	165.2	-1.67907E-001	-1.44574E-002	0.00000E+000	-1.68350E-001	-1.21221E-004	10	...........	-327.56
	3312	165.65	-1.76920E-001	-1.45292E-002	0.00000E+000	-1.77350E-001	-1.17555E-004	10	...........	-327.56
	3321	166.1	-1.85959E-001	-1.45411E-002	0.00000E+000	-1.86350E-001	-1.21221E-004	10	...........	-327.56
[...]
	32690	1634.55	5.54248E-001	5.98046E-002	0.00000E+000	5.55000E-001	-1.14555E-004	11	...........	-327.56
	32696	1634.85	5.60286E-001	5.91400E-002	0.00000E+000	5.61000E-001	-1.16555E-004	11	...........	-327.56
	32702	1635.15	5.66322E-001	5.84035E-002	0.00000E+000	5.67000E-001	-1.26888E-004	11	...........	-327.56
	32708	1635.45	5.72308E-001	5.76425E-002	0.00000E+000	5.73000E-001	-1.25555E-004	11	...........	-327.56
	32714	1635.75	5.78218E-001	5.68770E-002	0.00000E+000	5.79000E-001	-1.23221E-004	11	...........	-327.56
	32720	1636.05	5.84262E-001	5.61193E-002	0.00000E+000	5.85000E-001	-1.22888E-004	11	...........	-327.56
	32726	1636.35	5.90310E-001	5.55460E-002	0.00000E+000	5.91000E-001	-1.21555E-004	11	...........	-327.56
	32732	1636.65	5.96298E-001	5.46246E-002	0.00000E+000	5.97000E-001	-1.22221E-004	11	...........	-327.56
	32738	1636.95	6.02210E-001	5.39827E-002	0.00000E+000	6.03000E-001	-1.18221E-004	11	...........	-327.56
	32744	1637.25	6.08243E-001	5.32371E-002	0.00000E+000	6.09000E-001	-1.18555E-004	11	...........	-327.56
	32750	1637.55	6.14300E-001	5.25974E-002	0.00000E+000	6.15000E-001	-1.11221E-004	11	...........	-327.56
	32756	1637.85	6.20272E-001	5.20951E-002	0.00000E+000	6.21000E-001	-1.24221E-004	11	...........	-327.56
	32762	1638.15	6.26274E-001	5.14064E-002	0.00000E+000	6.27000E-001	-1.20555E-004	11	...........	-327.56
	32768	1638.45	6.32205E-001	5.04218E-002	0.00000E+000	6.33000E-001	-1.24555E-004	11	...........	-327.56
	32774	1638.75	6.38271E-001	4.98492E-002	0.00000E+000	6.39000E-001	-1.28221E-004	11	...........	-327.56
	32780	1639.05	6.44259E-001	4.88448E-002	0.00000E+000	6.45000E-001	-1.19555E-004	11	...........	-327.56
	32786	1639.35	6.50281E-001	4.80795E-002	0.00000E+000	6.51000E-001	-1.15888E-004	11	...........	-327.56
	32792	1639.65	6.56186E-001	4.73233E-002	0.00000E+000	6.57000E-001	-1.23555E-004	11	...........	-327.56
	32798	1639.95	6.62271E-001	4.63512E-002	0.00000E+000	6.63000E-001	-1.19888E-004	11	...........	-327.56
	32804	1640.25	6.68240E-001	4.52850E-002	0.00000E+000	6.69000E-001	-1.11888E-004	11	...........	-327.56
	32810	1640.55	6.74271E-001	4.39908E-002	0.00000E+000	6.75000E-001	-1.15221E-004	11	...........	-327.56
	32816	1640.85	6.80177E-001	4.29775E-002	0.00000E+000	6.81000E-001	-1.23221E-004	11	...........	-327.56
	32822	1641.15	6.86264E-001	4.12198E-002	0.00000E+000	6.87000E-001	-1.28888E-004	11	...........	-327.56
	32828	1641.45	6.92231E-001	3.98117E-002	0.00000E+000	6.93000E-001	-1.21221E-004	11	...........	-327.56
	32834	1641.75	6.98250E-001	3.82350E-002	0.00000E+000	6.99000E-001	-1.17555E-004	11	...........	-327.56
	32840	1642.05	7.04167E-001	3.65466E-002	0.00000E+000	7.05000E-001	-1.25888E-004	11	...........	-327.56
	32846	1642.35	7.10270E-001	3.46190E-002	0.00000E+000	7.11000E-001	-1.17888E-004	11	...........	-327.56
	32852	1642.65	7.16207E-001	3.26182E-002	0.00000E+000	7.17000E-001	-1.33221E-004	11	...........	-327.56
	32858	1642.95	7.22219E-001	3.08389E-002	0.00000E+000	7.23000E-001	-1.19221E-004	11	...........	-327.56
	32864	1643.25	7.28219E-001	2.89953E-002	0.00000E+000	7.29000E-001	-1.23888E-004	11	...........	-327.56
	32870	1643.55	7.34228E-001	2.70144E-002	0.00000E+000	7.35000E-001	-1.20888E-004	11	...........	-327.56
	32876	1643.85	7.40167E-001	2.52415E-002	0.00000E+000	7.41000E-001	-1.23221E-004	11	...........	-327.56
	32882	1644.15	7.45940E-001	2.37377E-002	0.00000E+000	7.47000E-001	-1.24888E-004	10	...........	-327.56
	32888	1644.45	7.51964E-001	2.21452E-002	0.00000E+000	7.53000E-001	-1.18555E-004	10	...........	-327.56
	32894	1644.75	7.57905E-001	2.08100E-002	0.00000E+000	7.59000E-001	-1.23888E-004	10	...........	-327.56
	32900	1645.05	7.63935E-001	1.95382E-002	0.00000E+000	7.65000E-001	-1.15221E-004	10	...........	-327.56
	32906	1645.35	7.69981E-001	1.85815E-002	0.00000E+000	7.71000E-001	-1.25221E-004	10	...........	-327.56
	32912	1645.65	7.76007E-001	1.75499E-002	0.00000E+000	7.77000E-001	-1.13555E-004	10	...........	-327.56
	32918	1645.95	7.81924E-001	1.66295E-002	0.00000E+000	7.83000E-001	-1.17555E-004	10	...........	-327.56
	32924	1646.25	7.87949E-001	1.60028E-002	0.00000E+000	7.89000E-001	-1.21888E-004	10	...........	-327.56
	32930	1646.55	7.93981E-001	1.54170E-002	0.00000E+000	7.95000E-001	-1.15555E-004	10	...........	-327.56
	32936	1646.85	8.00013E-001	1.48395E-002	0.00000E+000	8.01000E-001	-1.30555E-004	10	...........	-327.56
	32942	1647.15	8.06018E-001	1.44396E-002	0.00000E+000	8.07000E-001	-1.26555E-004	10	...........	-327.56
	32948	1647.45	8.11964E-001	1.41001E-002	0.00000E+000	8.13000E-001	-1.29221E-004	10	...........	-327.56
	32954	1647.75	8.17977E-001	1.38654E-002	0.00000E+000	8.19000E-001	-1.29888E-004	10	...........	-327.56
	32960	1648.05	8.23970E-001	1.36246E-002	0.00000E+000	8.25000E-001	-1.20888E-004	10	...........	-327.56
	32966	1648.35	8.29989E-001	1.34390E-002	0.00000E+000	8.31000E-001	-1.22221E-004	10	...........	-327.56
	32972	1648.65	8.35910E-001	1.32620E-002	0.00000E+000	8.37000E-001	-1.10221E-004	10	...........	-327.56
	32978	1648.95	8.41943E-001	1.31036E-002	0.00000E+000	8.43000E-001	-1.30555E-004	10	...........	-327.56
	32984	1649.25	8.47984E-001	1.30937E-002	0.00000E+000	8.49000E-001	-1.27555E-004	10	...........	-327.56
	32990	1649.55	8.53978E-001	1.30172E-002	0.00000E+000	8.55000E-001	-1.18555E-004	10	...........	-327.56
	32996	1649.85	8.59888E-001	1.29007E-002	0.00000E+000	8.61000E-001	-1.16221E-004	10	...........	-327.56
	33002	1650.15	8.65928E-001	1.28152E-002	0.00000E+000	8.67000E-001	-1.31221E-004	10	...........	-327.56
	33008	1650.45	8.71959E-001	1.26069E-002	0.00000E+000	8.73000E-001	-1.26888E-004	10	...........	-327.56
	33014	1650.75	8.77961E-001	1.27670E-002	0.00000E+000	8.79000E-001	-1.21555E-004	10	...........	-327.56
	33020	1651.05	8.83853E-001	1.27315E-002	0.00000E+000	8.85000E-001	-1.26221E-004	10	...........	-327.56
	33026	1651.35	8.89903E-001	1.27808E-002	0.00000E+000	8.91000E-001	-1.16888E-004	10	...........	-327.56
	33032	1651.65	8.95934E-001	1.28117E-002	0.00000E+000	8.97000E-001	-1.30221E-004	10	...........	-327.56
	33038	1651.95	9.01938E-001	1.27876E-002	0.00000E+000	9.03000E-001	-1.25221E-004	10	...........	-327.56
	33044	1652.25	9.07941E-001	1.27944E-002	0.00000E+000	9.09000E-001	-1.18888E-004	10	...........	-327.56
	33050	1652.55	9.13887E-001	1.28464E-002	0.00000E+000	9.15000E-001	-1.16555E-004	10	...........	-327.56
	33056	1652.85	9.19921E-001	1.28247E-002	0.00000E+000	9.21000E-001	-1.12888E-004	10	...........	-327.56
	33062	1653.15	9.25870E-001	1.28556E-002	0.00000E+000	9.27000E-001	-1.13888E-004	10	...........	-327.56
	33068	1653.45	9.31883E-001	1.29262E-002	0.00000E+000	9.33000E-001	-1.20221E-004	10	...........	-327.56
	33074	1653.75	9.37817E-001	1.30048E-002	0.00000E+000	9.39000E-001	-1.16555E-004	10	...........	-327.56
	33080	1654.05	9.43877E-001	1.30289E-002	0.00000E+000	9.45000E-001	-1.17221E-004	10	...........	-327.56
	33086	1654.35	9.49862E-001	1.31151E-002	0.00000E+000	9.51000E-001	-1.24888E-004	10	...........	-327.56
	33092	1654.65	9.55880E-001	1.32184E-002	0.00000E+000	9.57000E-001	-1.24221E-004	10	...........	-327.56
	33098	1654.95	9.61786E-001	1.32384E-002	0.00000E+000	9.63000E-001	-1.16888E-004	10	...........	-327.56
	33104	1655.25	9.67867E-001	1.32837E-002	0.00000E+000	9.69000E-001	-1.23888E-004	10	...........	-327.56
	33110	1655.55	9.73824E-001	1.34715E-002	0.00000E+000	9.75000E-001	-1.19888E-004	10	...........	-327.56
	33116	1655.85	9.79857E-001	1.35434E-002	0.00000E+000	9.81000E-001	-1.13221E-004	10	...........	-327.56
	33122	1656.15	9.85770E-001	1.36699E-002	0.00000E+000	9.87000E-001	-1.17555E-004	10	...........	-327.56
	33128	1656.45	9.91838E-001	1.37852E-002	0.00000E+000	9.93000E-001	-1.18888E-004	10	...........	-327.56
	33134	1656.75	9.97789E-001	1.39449E-002	0.00000E+000	9.99000E-001	-1.27888E-004	10	...........	-327.56
	33140	1657.05	1.00383E+000	1.41012E-002	0.00000E+000	1.00500E+000	-1.16555E-004	10	...........	-327.56
	33146	1657.35	1.00983E+000	1.42418E-002	0.00000E+000	1.01100E+000	-1.15888E-004	10	...........	-327.56
	33152	1657.65	1.01584E+000	1.44873E-002	0.00000E+000	1.01700E+000	-1.31555E-004	10	...........	-327.56
	33158	1657.95	1.02177E+000	1.47982E-002	0.00000E+000	1.02300E+000	-1.20888E-004	10	...........	-327.56
	33164	1658.25	1.02778E+000	1.50167E-002	0.00000E+000	1.02900E+000	-1.14555E-004	10	...........	-327.56
	33170	1658.55	1.03380E+000	1.53957E-002	0.00000E+000	1.03500E+000	-1.14888E-004	10	...........	-327.56
	33176	1658.85	1.03973E+000	1.58101E-002	0.00000E+000	1.04100E+000	-1.23888E-004	10	...........	-327.56
	33182	1659.15	1.04571E+000	1.62182E-002	0.00000E+000	1.04700E+000	-1.25555E-004	10	...........	-327.56
	33188	1659.45	1.05174E+000	1.66270E-002	0.00000E+000	1.05300E+000	-1.16221E-004	10	...........	-327.56
	33194	1659.75	1.05775E+000	1.71415E-002	0.00000E+000	1.05900E+000	-1.13221E-004	10	...........	-327.56
	33200	1660.05	1.06364E+000	1.77791E-002	0.00000E+000	1.06500E+000	-1.26888E-004	10	...........	-327.56
	33206	1660.35	1.06967E+000	1.84545E-002	0.00000E+000	1.07100E+000	-1.16888E-004	10	...........	-327.56
	33212	1660.65	1.07567E+000	1.91032E-002	0.00000E+000	1.07700E+000	-1.16555E-004	10	...........	-327.56
	33218	1660.95	1.08170E+000	1.98901E-002	0.00000E+000	1.08300E+000	-1.19888E-004	10	...........	-327.56
	33224	1661.25	1.08767E+000	2.07120E-002	0.00000E+000	1.08900E+000	-1.21221E-004	10	...........	-327.56
	33230	1661.55	1.09359E+000	2.15845E-002	0.00000E+000	1.09500E+000	-1.24555E-004	10	...........	-327.56
	33236	1661.85	1.09960E+000	2.25935E-002	0.00000E+000	1.10100E+000	-1.19221E-004	10	...........	-327.56
	33242	1662.15	1.10562E+000	2.36686E-002	0.00000E+000	1.10700E+000	-1.22221E-004	10	...........	-327.56
	33248	1662.45	1.11160E+000	2.48655E-002	0.00000E+000	1.11300E+000	-1.18888E-004	10	...........	-327.56
	33254	1662.75	1.11752E+000	2.62042E-002	0.00000E+000	1.11900E+000	-1.25555E-004	10	...........	-327.56
	33260	1663.05	1.12383E+000	2.73979E-002	0.00000E+000	1.12500E+000	-1.15221E-004	11	...........	-327.56
	33266	1663.35	1.12982E+000	2.88263E-002	0.00000E+000	1.13100E+000	-1.15221E-004	11	...........	-327.56
	33272	1663.65	1.13584E+000	3.03655E-002	0.00000E+000	1.13700E+000	-1.16555E-004	11	...........	-327.56
	33278	1663.95	1.14173E+000	3.19188E-002	0.00000E+000	1.14300E+000	-1.17888E-004	11	...........	-327.56
	33284	1664.25	1.14777E+000	3.36723E-002	0.00000E+000	1.14900E+000	-1.21221E-004	11	...........	-327.56
	33290	1664.55	1.15379E+000	3.56221E-002	0.00000E+000	1.15500E+000	-1.24555E-004	11	...........	-327.56
	33296	1664.85	1.15981E+000	3.75671E-002	0.00000E+000	1.16100E+000	-1.22888E-004	11	...........	-327.56
	33302	1665.15	1.16567E+000	3.93123E-002	0.00000E+000	1.16700E+000	-1.32221E-004	11	...........	-327.56
	33308	1665.45	1.17171E+000	4.14460E-002	0.00000E+000	1.17300E+000	-1.17888E-004	11	...........	-327.56
	33314	1665.75	1.17772E+000	4.36701E-002	0.00000E+000	1.17900E+000	-1.18221E-004	11	...........	-327.56
	33320	1666.05	1.18375E+000	4.59960E-002	0.00000E+000	1.18500E+000	-1.23221E-004	11	...........	-327.56
	33326	1666.35	1.18974E+000	4.80656E-002	0.00000E+000	1.19100E+000	-1.23555E-004	11	...........	-327.56
	33332	1666.65	1.19568E+000	5.04163E-002	0.00000E+000	1.19700E+000	-1.09888E-004	11	...........	-327.56
	33338	1666.95	1.20168E+000	5.29259E-002	0.00000E+000	1.20300E+000	-1.26555E-004	11	...........	-327.56
	33344	1667.25	1.20770E+000	5.55758E-002	0.00000E+000	1.20900E+000	-1.13221E-004	11	...........	-327.56
	33350	1667.55	1.21371E+000	5.80695E-002	0.00000E+000	1.21500E+000	-1.25888E-004	11	...........	-327.56
	33356	1667.85	1.21964E+000	6.06890E-002	0.00000E+000	1.22100E+000	-1.27555E-004	11	...........	-327.56
	33362	1668.15	1.22566E+000	6.36266E-002	0.00000E+000	1.22700E+000	-1.29555E-004	11	...........	-327.56
	33368	1668.45	1.23167E+000	6.63463E-002	0.00000E+000	1.23300E+000	-1.24221E-004	11	...........	-327.56
	33374	1668.75	1.23769E+000	6.94027E-002	0.00000E+000	1.23900E+000	-1.22221E-004	11	...........	-327.56
	33380	1669.05	1.24359E+000	7.22846E-002	0.00000E+000	1.24500E+000	-1.13888E-004	11	...........	-327.56
	33386	1669.35	1.24965E+000	7.54869E-002	0.00000E+000	1.25100E+000	-1.17888E-004	11	...........	-327.56
	33392	1669.65	1.25564E+000	7.87098E-002	0.00000E+000	1.25700E+000	-1.23555E-004	11	...........	-327.56
	33398	1669.95	1.26164E+000	8.17778E-002	0.00000E+000	1.26300E+000	-1.14221E-004	11	...........	-327.56
	33404	1670.25	1.26755E+000	8.51915E-002	0.00000E+000	1.26900E+000	-1.21221E-004	11	...........	-327.56
	33410	1670.55	1.27357E+000	8.86544E-002	0.00000E+000	1.27500E+000	-1.15221E-004	11	...........	-327.56
	33416	1670.85	1.27958E+000	9.22054E-002	0.00000E+000	1.28100E+000	-1.22555E-004	11	...........	-327.56
	33422	1671.15	1.28561E+000	9.59865E-002	0.00000E+000	1.28700E+000	-1.19888E-004	11	...........	-327.56
	33428	1671.45	1.29161E+000	9.98139E-002	0.00000E+000	1.29300E+000	-1.22888E-004	11	...........	-327.56
	33434	1671.75	1.29754E+000	1.03464E-001	0.00000E+000	1.29900E+000	-1.22555E-004	11	...........	-327.56
	33440	1672.05	1.30353E+000	1.07122E-001	0.00000E+000	1.30500E+000	-1.20888E-004	11	...........	-327.56
	33446	1672.35	1.30957E+000	1.11267E-001	0.00000E+000	1.31100E+000	-1.20888E-004	11	...........	-327.56
	33452	1672.65	1.31558E+000	1.14813E-001	0.00000E+000	1.31700E+000	-1.14555E-004	11	...........	-327.56
	33458	1672.95	1.32152E+000	1.19017E-001	0.00000E+000	1.32300E+000	-1.27221E-004	11	...........	-327.56
	33464	1673.25	1.32749E+000	1.22867E-001	0.00000E+000	1.32900E+000	-1.25555E-004	11	...........	-327.56
	33470	1673.55	1.33348E+000	1.27047E-001	0.00000E+000	1.33500E+000	-1.25555E-004	11	...........	-327.56
	33476	1673.85	1.33949E+000	1.30562E-001	0.00000E+000	1.34100E+000	-1.12888E-004	11	...........	-327.56
	33482	1674.15	1.34549E+000	1.35038E-001	0.00000E+000	1.34700E+000	-1.21888E-004	11	...........	-327.56
	33488	1674.45	1.35141E+000	1.38965E-001	0.00000E+000	1.35300E+000	-1.18221E-004	11	...........	-327.56
	33494	1674.75	1.35741E+000	1.43163E-001	0.00000E+000	1.35900E+000	-1.24555E-004	11	...........	-327.56
	33500	1675.05	1.36345E+000	1.47305E-001	0.00000E+000	1.36500E+000	-1.15555E-004	11	...........	-327.56
	33506	1675.35	1.36945E+000	1.51439E-001	0.00000E+000	1.37100E+000	-1.25888E-004	11	...........	-327.56
	33512	1675.65	1.37538E+000	1.55637E-001	0.00000E+000	1.37700E+000	-1.27888E-004	11	...........	-327.56
	33518	1675.95	1.38137E+000	1.60986E-001	0.00000E+000	1.38300E+000	-1.20555E-004	11	...........	-327.56
	33524	1676.25	1.38742E+000	1.64750E-001	0.00000E+000	1.38900E+000	-1.21221E-004	11	...........	-327.56
	33530	1676.55	1.39340E+000	1.69648E-001	0.00000E+000	1.39500E+000	-1.22888E-004	11	...........	-327.56
	33536	1676.85	1.39931E+000	1.74025E-001	0.00000E+000	1.40100E+000	-1.21888E-004	11	...........	-327.56
	33542	1677.15	1.40532E+000	1.78943E-001	0.00000E+000	1.40700E+000	-1.14555E-004	11	...........	-327.56
	33548	1677.45	1.41134E+000	1.82904E-001	0.00000E+000	1.41300E+000	-1.20888E-004	11	...........	-327.56
	33554	1677.75	1.41733E+000	1.89347E-001	0.00000E+000	1.41900E+000	-1.17221E-004	11	...........	-327.56
	33560	1678.05	1.42321E+000	1.92865E-001	0.00000E+000	1.42500E+000	-1.27888E-004	11	...........	-327.56
	33566	1678.35	1.42926E+000	1.98141E-001	0.00000E+000	1.43100E+000	-1.19221E-004	11	...........	-327.56
	33572	1678.65	1.43526E+000	2.04015E-001	0.00000E+000	1.43700E+000	-1.17555E-004	11	...........	-327.56
	33578	1678.95	1.44128E+000	2.08782E-001	0.00000E+000	1.44300E+000	-1.12888E-004	11	...........	-327.56
	33584	1679.25	1.44714E+000	2.16055E-001	0.00000E+000	1.44900E+000	-1.23221E-004	11	...........	-327.56
	33590	1679.55	1.45318E+000	2.20106E-001	0.00000E+000	1.45500E+000	-1.17555E-004	11	...........	-327.56
	33596	1679.85	1.45920E+000	2.23241E-001	0.00000E+000	1.46100E+000	-1.18555E-004	11	...........	-327.56
	33602	1680.15	1.46522E+000	2.29728E-001	0.00000E+000	1.46700E+000	-1.18221E-004	11	...........	-327.56
	33608	1680.45	1.47122E+000	2.34401E-001	0.00000E+000	1.47300E+000	-1.20555E-004	11	...........	-327.56
	33614	1680.75	1.47715E+000	2.39226E-001	0.00000E+000	1.47900E+000	-1.23555E-004	11	...........	-327.56
	33620	1681.05	1.48315E+000	2.45205E-001	0.00000E+000	1.48500E+000	-1.21221E-004	11	...........	-327.56
	33626	1681.35	1.48916E+000	2.50079E-001	0.00000E+000	1.49100E+000	-1.27888E-004	11	...........	-327.56
	33632	1681.65	1.49517E+000	2.55302E-001	0.00000E+000	1.49700E+000	-1.23221E-004	11	...........	-327.56
	33638	1681.95	1.50109E+000	2.59285E-001	0.00000E+000	1.50300E+000	-1.18555E-004	11	...........	-327.56
	33644	1682.25	1.50737E+000	2.67013E-001	0.00000E+000	1.50900E+000	-1.18888E-004	12	...........	-327.56
	33650	1682.55	1.51344E+000	2.69799E-001	0.00000E+000	1.51500E+000	-1.16555E-004	12	...........	-327.56
	33656	1682.85	1.51942E+000	2.76634E-001	0.00000E+000	1.52100E+000	-1.43555E-004	12	...........	-327.56
	33662	1683.15	1.52532E+000	2.78609E-001	0.00000E+000	1.52700E+000	-1.17555E-004	12	...........	-327.56
	33668	1683.45	1.53137E+000	2.85421E-001	0.00000E+000	1.53300E+000	-1.25221E-004	12	...........	-327.56
	33674	1683.75	1.53734E+000	2.91467E-001	0.00000E+000	1.53900E+000	-1.17555E-004	12	...........	-327.56
	33680	1684.05	1.54333E+000	2.94504E-001	0.00000E+000	1.54500E+000	-1.32221E-004	12	...........	-327.56
	33686	1684.35	1.54922E+000	2.99396E-001	0.00000E+000	1.55100E+000	-1.18221E-004	12	...........	-327.56
	33692	1684.65	1.55526E+000	3.05343E-001	0.00000E+000	1.55700E+000	-1.16888E-004	12	...........	-327.56
	33698	1684.95	1.56128E+000	3.13566E-001	0.00000E+000	1.56300E+000	-1.26555E-004	12	...........	-327.56
	33704	1685.25	1.56733E+000	3.17180E-001	0.00000E+000	1.56900E+000	-1.24888E-004	12	...........	-327.56
	33710	1685.55	1.57330E+000	3.20024E-001	0.00000E+000	1.57500E+000	-1.17555E-004	12	...........	-327.56
	33716	1685.85	1.57922E+000	3.23308E-001	0.00000E+000	1.58100E+000	-1.25555E-004	12	...........	-327.56
	33722	1686.15	1.58524E+000	3.32222E-001	0.00000E+000	1.58700E+000	-1.27888E-004	12	...........	-327.56
	33728	1686.45	1.59127E+000	3.34689E-001	0.00000E+000	1.59300E+000	-1.15555E-004	12	...........	-327.56
	33734	1686.75	1.59730E+000	3.39918E-001	0.00000E+000	1.59900E+000	-1.18221E-004	12	...........	-327.56
	33740	1687.05	1.60319E+000	3.42649E-001	0.00000E+000	1.60500E+000	-1.20221E-004	12	...........	-327.56
	33746	1687.35	1.60922E+000	3.45688E-001	0.00000E+000	1.61100E+000	-1.27221E-004	12	...........	-327.56
	33752	1687.65	1.61522E+000	3.52808E-001	0.00000E+000	1.61700E+000	-1.29221E-004	12	...........	-327.56
	33758	1687.95	1.62126E+000	3.57318E-001	0.00000E+000	1.62300E+000	-1.28221E-004	12	...........	-327.56
	33764	1688.25	1.62715E+000	3.63228E-001	0.00000E+000	1.62900E+000	-1.25221E-004	12	...........	-327.56
	33770	1688.55	1.63318E+000	3.65453E-001	0.00000E+000	1.63500E+000	-1.23555E-004	12	...........	-327.56
	33776	1688.85	1.63920E+000	3.72567E-001	0.00000E+000	1.64100E+000	-1.30221E-004	12	...........	-327.56
	33782	1689.15	1.64520E+000	3.80725E-001	0.00000E+000	1.64700E+000	-1.19555E-004	12	...........	-327.56
	33788	1689.45	1.65119E+000	3.87638E-001	0.00000E+000	1.65300E+000	-1.29555E-004	12	...........	-327.56
	33794	1689.75	1.65713E+000	3.90296E-001	0.00000E+000	1.65900E+000	-1.21888E-004	12	...........	-327.56
	33800	1690.05	1.66315E+000	3.98006E-001	0.00000E+000	1.66500E+000	-1.23221E-004	12	...........	-327.56
	33806	1690.35	1.66918E+000	4.03797E-001	0.00000E+000	1.67100E+000	-1.13888E-004	12	...........	-327.56
	33812	1690.65	1.67516E+000	4.08641E-001	0.00000E+000	1.67700E+000	-1.26555E-004	12	...........	-327.56
	33818	1690.95	1.68111E+000	4.11365E-001	0.00000E+000	1.68300E+000	-1.22888E-004	12	...........	-327.56
	33824	1691.25	1.68710E+000	4.19461E-001	0.00000E+000	1.68900E+000	-1.18888E-004	12	...........	-327.56
	33830	1691.55	1.69314E+000	4.24496E-001	0.00000E+000	1.69500E+000	-1.22555E-004	12	...........	-327.56
	33835	1691.8	1.69810E+000	4.77073E-001	0.00000E+000	1.70000E+000	-1.25555E-004	12	...........	-327.56