File: testing/data/240902_04_MCL13_cswWE_CV2_750C_CO2.DTA
EXPLAIN
TAG	CV
TITLE	LABEL	Cyclic Voltammetry	Test Identifier
DATE	LABEL	9/2/2024	Date
TIME	LABEL	17:45:37	Time
NOTES	NOTES	5	Notes...
	cswWE - carbon steel wire
cspWE - carbon steel plate 2x2 tapered

Carbon steel plate counter electrode
Carbon steel wire reference electrode
PSTAT	PSTAT	REF3000-48128	Potentiostat
VINIT	POTEN	0.00000E+000	T	Initial E (V)
VLIMIT1	POTEN	1.70000E+000	F	Scan Limit 1 (V)
VLIMIT2	POTEN	-6.00000E-001	F	Scan Limit 2 (V)
VFINAL	POTEN	1.70000E+000	F	Final E (V)
SCANRATE	QUANT	2.00000E+000	Scan Rate (mV/s)
STEPSIZE	QUANT	1.00000E+000	Step Size (mV)
CYCLES	IQUANT	2	Cycles (#)
IMODE	SELECTOR	0	I/E Range Mode
IRANGE	QUANT	3.00000E-001	Max Current (mA)
AREA	QUANT	1.00000E+000	Sample Area (cm^2)
EQDELAY	QUANT	0.00000E+000	Equil. Time (s)
IRCOMP	SELECTOR	0	IRComp
PFCOR	QUANT	5.00000E+001	PF Corr. (ohm)
SAMPLINGMODE	SELECTOR	1	Sampling Mode
EOC	QUANT	0.4505452	Open Circuit (V)
ELECTRODETYPE	SELECTOR	0	Electrode Type
STRIPPING	TOGGLE	F	Used for Stripping
SEQUENCER	TOGGLE	TRUE	Run as Sequence
PSTATMODEL	IQUANT	5	Pstat Model
PSTATSECTION	LABEL	REF3000-48128	Pstat Section
PSTATSERIALNO	LABEL	48128	Pstat Serial Number
CTRLMODE	IQUANT	1	Control Mode
ELECTROMETER	IQUANT	0	RE=0 or CS=1
IESTAB	IQUANT	2	I/E Stability
CASPEED	IQUANT	4	Control Amp Speed
CONVENTION	IQUANT	1	Current Convention
ICHRANGE	IQUANT	2	Ich Range
ICHRANGEMODE	TOGGLE	F	Ich Auto Range
ICHOFFSETENABLE	TOGGLE	F	Ich Offset Enable
ICHOFFSET	QUANT	0	Ich Offset (V)
ICHFILTER	IQUANT	3	Ich Filter
VCHRANGE	IQUANT	2	Vch Range
VCHRANGEMODE	TOGGLE	F	Vch Auto Range
VCHOFFSETENABLE	TOGGLE	F	Vch Offset Enable
VCHOFFSET	QUANT	0	Vch Offset (V)
VCHFILTER	IQUANT	3	Vch Filter
ACHRANGE	IQUANT	2	Ach Range
ACHOFFSETENABLE	TOGGLE	F	Ach Offset Enable
ACHOFFSET	QUANT	0	Ach Offset (V)
ACHFILTER	IQUANT	1	Ach Filter
IERANGELOWERLIMIT	IQUANT	2	I/E Range Lower Limit
IERANGEMODE	TOGGLE	T	I/E AutoRange
IERANGE	IQUANT	9	I/E Range
POSFEEDENABLE	TOGGLE	F	Positive Feedback IR Comp
POSFEEDRESISTANCE	QUANT	0	Positive Feedback Resistance (ohm)
ACHSELECT	IQUANT	4	Ach Select
SENSECABLEID	IQUANT	14	Sense Cable ID
PWRCABLEID	IQUANT	7	Power Cable ID
DCCALDATE	LABEL	8/16/2024	DC Calibration Date
ACCALDATE	LABEL	8/16/2024	AC Calibration Date
THERMOSELECT	IQUANT	1	Thermo Select
FRAMEWORKVERSION	LABEL	7.10.3	Framework Version
INSTRUMENTVERSION	LABEL	4.91	Instrument Version
COMMVERSION	LABEL	5.10	Communications Version
CPUPLDVERSION	LABEL	6.00	CPU PLD Version
CTRLPLDVERSION	LABEL	3.21	CTRL PLD Version
PSTATPLDVERSION	LABEL	0.00	PSTAT PLD Version
COMPLIANCEVOLTAGE	IQUANT	0	Compliance Voltage
CURVE1	TABLE
	Pt	T	Vf	Im	Vu	Sig	Ach	IERange	Over	Temp
	#	s	V vs. Ref.	A	V	V	V	#	bits	deg C
	0	0.5	4.49853E-001	8.42792E-004	0.00000E+000	4.50550E-001	-8.11881E-005	9	...........	-327.56
	8	4.5	4.57951E-001	3.10188E-003	0.00000E+000	4.58550E-001	-7.69548E-005	10	...........	-327.56
	16	8.5	4.65962E-001	4.43389E-003	0.00000E+000	4.66550E-001	-8.01548E-005	10	...........	-327.56
	24	12.5	4.73848E-001	5.41269E-003	0.00000E+000	4.74550E-001	-7.60548E-005	10	...........	-327.56
	32	16.5	4.81881E-001	6.16634E-003	0.00000E+000	4.82550E-001	-7.99881E-005	10	...........	-327.56
	40	20.5	4.89905E-001	6.76180E-003	0.00000E+000	4.90550E-001	-7.91548E-005	10	...........	-327.56
	48	24.5	4.97914E-001	7.26602E-003	0.00000E+000	4.98550E-001	-8.76881E-005	10	...........	-327.56
	56	28.5	5.05834E-001	7.63808E-003	0.00000E+000	5.06550E-001	-8.70548E-005	10	...........	-327.56
	64	32.5	5.13842E-001	7.94354E-003	0.00000E+000	5.14550E-001	-8.62214E-005	10	...........	-327.56
	72	36.5	5.21832E-001	8.17764E-003	0.00000E+000	5.22550E-001	-8.63548E-005	10	...........	-327.56
	80	40.5	5.29764E-001	8.41686E-003	0.00000E+000	5.30550E-001	-8.97548E-005	10	...........	-327.56
	88	44.5	5.37782E-001	8.59427E-003	0.00000E+000	5.38550E-001	-9.11214E-005	10	...........	-327.56
	96	48.5	5.45834E-001	8.71306E-003	0.00000E+000	5.46550E-001	-8.57214E-005	10	...........	-327.56
	104	52.5	5.53712E-001	8.84945E-003	0.00000E+000	5.54550E-001	-8.77548E-005	10	...........	-327.56
	112	56.5	5.61761E-001	8.89476E-003	0.00000E+000	5.62550E-001	-8.72881E-005	10	...........	-327.56
	120	60.5	5.69792E-001	8.89951E-003	0.00000E+000	5.70550E-001	-8.59881E-005	10	...........	-327.56
	128	64.5	5.77646E-001	8.89498E-003	0.00000E+000	5.78550E-001	-8.75881E-005	10	...........	-327.56
	136	68.5	5.85719E-001	8.87722E-003	0.00000E+000	5.86550E-001	-8.47881E-005	10	...........	-327.56
	144	72.5	5.93770E-001	8.84519E-003	0.00000E+000	5.94550E-001	-9.15214E-005	10	...........	-327.56
	152	76.5	6.01733E-001	8.83803E-003	0.00000E+000	6.02550E-001	-8.51881E-005	10	...........	-327.56
	160	80.5	6.09710E-001	8.78122E-003	0.00000E+000	6.10550E-001	-9.23881E-005	10	...........	-327.56
	168	84.5	6.17727E-001	8.75073E-003	0.00000E+000	6.18550E-001	-8.82881E-005	10	...........	-327.56
	176	88.5	6.25731E-001	8.75933E-003	0.00000E+000	6.26550E-001	-8.81214E-005	10	...........	-327.56
	184	92.5	6.33662E-001	8.72882E-003	0.00000E+000	6.34550E-001	-8.68214E-005	10	...........	-327.56
	192	96.5	6.41711E-001	8.68960E-003	0.00000E+000	6.42550E-001	-8.89881E-005	10	...........	-327.56
	200	100.5	6.49720E-001	8.61134E-003	0.00000E+000	6.50550E-001	-8.72881E-005	10	...........	-327.56
	208	104.5	6.57619E-001	8.53673E-003	0.00000E+000	6.58550E-001	-9.07214E-005	10	...........	-327.56
	216	108.5	6.65659E-001	8.44857E-003	0.00000E+000	6.66550E-001	-9.11881E-005	10	...........	-327.56
	224	112.5	6.73704E-001	8.32822E-003	0.00000E+000	6.74550E-001	-9.15214E-005	10	...........	-327.56
	232	116.5	6.81590E-001	8.20940E-003	0.00000E+000	6.82550E-001	-8.68548E-005	10	...........	-327.56
	240	120.5	6.89617E-001	8.07600E-003	0.00000E+000	6.90550E-001	-9.15214E-005	10	...........	-327.56
	248	124.5	6.97690E-001	8.02353E-003	0.00000E+000	6.98550E-001	-9.03548E-005	10	...........	-327.56
	256	128.5	7.05556E-001	7.93876E-003	0.00000E+000	7.06550E-001	-8.94214E-005	10	...........	-327.56
	264	132.5	7.13596E-001	7.90124E-003	0.00000E+000	7.14550E-001	-8.62214E-005	10	...........	-327.56
	272	136.5	7.21601E-001	7.76071E-003	0.00000E+000	7.22550E-001	-8.97214E-005	10	...........	-327.56
	280	140.5	7.29613E-001	7.85164E-003	0.00000E+000	7.30550E-001	-8.86214E-005	10	...........	-327.56
	288	144.5	7.37560E-001	7.81514E-003	0.00000E+000	7.38550E-001	-9.01214E-005	10	...........	-327.56
	296	148.5	7.45578E-001	7.71281E-003	0.00000E+000	7.46550E-001	-8.89548E-005	10	...........	-327.56
	304	152.5	7.53606E-001	7.64766E-003	0.00000E+000	7.54550E-001	-8.89881E-005	10	...........	-327.56
	312	156.5	7.61548E-001	7.58742E-003	0.00000E+000	7.62550E-001	-8.58214E-005	10	...........	-327.56
	320	160.5	7.69569E-001	7.57007E-003	0.00000E+000	7.70550E-001	-9.02881E-005	10	...........	-327.56
	328	164.5	7.77584E-001	7.51371E-003	0.00000E+000	7.78550E-001	-8.89881E-005	10	...........	-327.56
	336	168.5	7.85539E-001	7.48303E-003	0.00000E+000	7.86550E-001	-8.99548E-005	10	...........	-327.56
	344	172.5	7.93543E-001	7.39103E-003	0.00000E+000	7.94550E-001	-8.68881E-005	10	...........	-327.56
	352	176.5	8.01569E-001	7.30601E-003	0.00000E+000	8.02550E-001	-9.11548E-005	10	...........	-327.56
	360	180.5	8.09534E-001	7.27242E-003	0.00000E+000	8.10550E-001	-8.90214E-005	10	...........	-327.56
	368	184.5	8.17540E-001	7.23724E-003	0.00000E+000	8.18550E-001	-8.98214E-005	10	...........	-327.56
	376	188.5	8.25534E-001	7.20865E-003	0.00000E+000	8.26550E-001	-8.70881E-005	10	...........	-327.56
	384	192.5	8.33517E-001	7.21372E-003	0.00000E+000	8.34550E-001	-9.06881E-005	10	...........	-327.56
	392	196.5	8.41518E-001	7.23473E-003	0.00000E+000	8.42550E-001	-8.79881E-005	10	...........	-327.56
	400	200.5	8.49526E-001	7.26505E-003	0.00000E+000	8.50550E-001	-9.26214E-005	10	...........	-327.56
	408	204.5	8.57514E-001	7.26254E-003	0.00000E+000	8.58550E-001	-8.95881E-005	10	...........	-327.56
	416	208.5	8.65509E-001	7.31534E-003	0.00000E+000	8.66550E-001	-9.20548E-005	10	...........	-327.56
	424	212.5	8.73508E-001	7.36054E-003	0.00000E+000	8.74550E-001	-8.55214E-005	10	...........	-327.56
	432	216.5	8.81499E-001	7.42364E-003	0.00000E+000	8.82550E-001	-8.99214E-005	10	...........	-327.56
	440	220.5	8.89474E-001	7.48391E-003	0.00000E+000	8.90550E-001	-9.01214E-005	10	...........	-327.56
	448	224.5	8.97491E-001	7.57676E-003	0.00000E+000	8.98550E-001	-8.91548E-005	10	...........	-327.56
	456	228.5	9.05489E-001	7.67647E-003	0.00000E+000	9.06550E-001	-9.19548E-005	10	...........	-327.56
	464	232.5	9.13473E-001	7.73071E-003	0.00000E+000	9.14550E-001	-9.26548E-005	10	...........	-327.56
	472	236.5	9.21458E-001	7.78476E-003	0.00000E+000	9.22550E-001	-8.92548E-005	10	...........	-327.56
	480	240.5	9.29415E-001	7.92312E-003	0.00000E+000	9.30550E-001	-9.04548E-005	10	...........	-327.56
	488	244.5	9.37362E-001	8.08801E-003	0.00000E+000	9.38550E-001	-8.80214E-005	10	...........	-327.56
	496	248.5	9.45370E-001	8.29309E-003	0.00000E+000	9.46550E-001	-9.24548E-005	10	...........	-327.56
	504	252.5	9.53408E-001	8.51087E-003	0.00000E+000	9.54550E-001	-8.75214E-005	10	...........	-327.56
	512	256.5	9.61327E-001	8.79062E-003	0.00000E+000	9.62550E-001	-9.26214E-005	10	...........	-327.56
	520	260.5	9.69349E-001	9.07429E-003	0.00000E+000	9.70550E-001	-8.97548E-005	10	...........	-327.56
	528	264.5	9.77365E-001	9.44232E-003	0.00000E+000	9.78550E-001	-8.81881E-005	10	...........	-327.56
	536	268.5	9.85345E-001	9.90340E-003	0.00000E+000	9.86550E-001	-8.54881E-005	10	...........	-327.56
	544	272.5	9.93289E-001	1.04129E-002	0.00000E+000	9.94550E-001	-8.96214E-005	10	...........	-327.56
	552	276.5	1.00132E+000	1.10356E-002	0.00000E+000	1.00255E+000	-9.09214E-005	10	...........	-327.56
	560	280.5	1.00930E+000	1.17806E-002	0.00000E+000	1.01055E+000	-8.99548E-005	10	...........	-327.56
	568	284.5	1.01723E+000	1.26669E-002	0.00000E+000	1.01855E+000	-9.00214E-005	10	...........	-327.56
	576	288.5	1.02524E+000	1.37281E-002	0.00000E+000	1.02655E+000	-9.21214E-005	10	...........	-327.56
	584	292.5	1.03322E+000	1.49946E-002	0.00000E+000	1.03455E+000	-8.89214E-005	10	...........	-327.56
	592	296.5	1.04114E+000	1.64369E-002	0.00000E+000	1.04255E+000	-8.88214E-005	10	...........	-327.56
	600	300.5	1.04913E+000	1.80352E-002	0.00000E+000	1.05055E+000	-8.76214E-005	10	...........	-327.56
	608	304.5	1.05715E+000	1.96788E-002	0.00000E+000	1.05855E+000	-9.09214E-005	10	...........	-327.56
	616	308.5	1.06507E+000	2.12259E-002	0.00000E+000	1.06655E+000	-8.62881E-005	10	...........	-327.56
	624	312.5	1.07305E+000	2.32614E-002	0.00000E+000	1.07455E+000	-8.48881E-005	10	...........	-327.56
	632	316.5	1.08107E+000	2.52926E-002	0.00000E+000	1.08255E+000	-8.74548E-005	10	...........	-327.56
	640	320.5	1.08925E+000	2.76939E-002	0.00000E+000	1.09055E+000	-9.38548E-005	11	...........	-327.56
	648	324.5	1.09727E+000	3.03826E-002	0.00000E+000	1.09855E+000	-9.08881E-005	11	...........	-327.56
	656	328.5	1.10533E+000	3.32254E-002	0.00000E+000	1.10655E+000	-8.80548E-005	11	...........	-327.56
	664	332.5	1.11332E+000	3.64190E-002	0.00000E+000	1.11455E+000	-8.92548E-005	11	...........	-327.56
	672	336.5	1.12126E+000	4.00211E-002	0.00000E+000	1.12255E+000	-8.95881E-005	11	...........	-327.56
	680	340.5	1.12922E+000	4.40016E-002	0.00000E+000	1.13055E+000	-9.06214E-005	11	...........	-327.56
	688	344.5	1.13722E+000	4.86286E-002	0.00000E+000	1.13855E+000	-9.15548E-005	11	...........	-327.56
	696	348.5	1.14515E+000	5.38388E-002	0.00000E+000	1.14655E+000	-8.55548E-005	11	...........	-327.56
	704	352.5	1.15317E+000	5.95472E-002	0.00000E+000	1.15455E+000	-8.90881E-005	11	...........	-327.56
	712	356.5	1.16119E+000	6.48497E-002	0.00000E+000	1.16255E+000	-8.99881E-005	11	...........	-327.56
	720	360.5	1.16910E+000	7.07382E-002	0.00000E+000	1.17055E+000	-8.89548E-005	11	...........	-327.56
	728	364.5	1.17711E+000	7.68038E-002	0.00000E+000	1.17855E+000	-8.50881E-005	11	...........	-327.56
	736	368.5	1.18512E+000	8.32185E-002	0.00000E+000	1.18655E+000	-8.70214E-005	11	...........	-327.56
	744	372.5	1.19304E+000	9.00248E-002	0.00000E+000	1.19455E+000	-8.97881E-005	11	...........	-327.56
	752	376.5	1.20105E+000	9.72360E-002	0.00000E+000	1.20255E+000	-9.00548E-005	11	...........	-327.56
	760	380.5	1.20908E+000	1.04979E-001	0.00000E+000	1.21055E+000	-8.57881E-005	11	...........	-327.56
	768	384.5	1.21699E+000	1.13140E-001	0.00000E+000	1.21855E+000	-8.88214E-005	11	...........	-327.56
	776	388.5	1.22500E+000	1.21946E-001	0.00000E+000	1.22655E+000	-9.02548E-005	11	...........	-327.56
	784	392.5	1.23303E+000	1.32032E-001	0.00000E+000	1.23455E+000	-8.60548E-005	11	...........	-327.56
	792	396.5	1.24100E+000	1.43147E-001	0.00000E+000	1.24255E+000	-8.76214E-005	11	...........	-327.56
	800	400.5	1.24895E+000	1.55148E-001	0.00000E+000	1.25055E+000	-9.15214E-005	11	...........	-327.56
	808	404.5	1.25695E+000	1.67043E-001	0.00000E+000	1.25855E+000	-8.70214E-005	11	...........	-327.56
	816	408.5	1.26493E+000	1.79099E-001	0.00000E+000	1.26655E+000	-8.80881E-005	11	...........	-327.56
	824	412.5	1.27284E+000	1.91875E-001	0.00000E+000	1.27455E+000	-8.51881E-005	11	...........	-327.56
	832	416.5	1.28084E+000	2.04707E-001	0.00000E+000	1.28255E+000	-8.59881E-005	11	...........	-327.56
	840	420.5	1.28886E+000	2.17895E-001	0.00000E+000	1.29055E+000	-8.71881E-005	11	...........	-327.56
	848	424.5	1.29675E+000	2.31962E-001	0.00000E+000	1.29855E+000	-8.55548E-005	11	...........	-327.56
	856	428.5	1.30475E+000	2.45981E-001	0.00000E+000	1.30655E+000	-8.62548E-005	11	...........	-327.56
	864	432.5	1.31276E+000	2.60425E-001	0.00000E+000	1.31455E+000	-8.26214E-005	11	...........	-327.56
	872	436.5	1.32097E+000	2.76686E-001	0.00000E+000	1.32255E+000	-9.03548E-005	12	...........	-327.56
	880	440.5	1.32897E+000	2.92893E-001	0.00000E+000	1.33055E+000	-8.69881E-005	12	...........	-327.56
	888	444.5	1.33696E+000	3.08946E-001	0.00000E+000	1.33855E+000	-8.85881E-005	12	...........	-327.56
	896	448.5	1.34484E+000	3.25209E-001	0.00000E+000	1.34655E+000	-9.27881E-005	12	...........	-327.56
	904	452.5	1.35287E+000	3.42852E-001	0.00000E+000	1.35455E+000	-9.25881E-005	12	...........	-327.56
	912	456.5	1.36090E+000	3.61465E-001	0.00000E+000	1.36255E+000	-8.91881E-005	12	...........	-327.56
	920	460.5	1.36886E+000	3.79422E-001	0.00000E+000	1.37055E+000	-9.10214E-005	12	...........	-327.56
	928	464.5	1.37679E+000	3.97694E-001	0.00000E+000	1.37855E+000	-8.90214E-005	12	...........	-327.56
	936	468.5	1.38483E+000	4.15814E-001	0.00000E+000	1.38655E+000	-9.39214E-005	12	...........	-327.56
	944	472.5	1.39281E+000	4.34246E-001	0.00000E+000	1.39455E+000	-8.85881E-005	12	...........	-327.56
	952	476.5	1.40075E+000	4.53804E-001	0.00000E+000	1.40255E+000	-8.97881E-005	12	...........	-327.56
	960	480.5	1.40875E+000	4.74543E-001	0.00000E+000	1.41055E+000	-8.49214E-005	12	...........	-327.56
	968	484.5	1.41676E+000	4.94758E-001	0.00000E+000	1.41855E+000	-8.79214E-005	12	...........	-327.56
	976	488.5	1.42469E+000	5.15276E-001	0.00000E+000	1.42655E+000	-8.77548E-005	12	...........	-327.56
	984	492.5	1.43270E+000	5.35485E-001	0.00000E+000	1.43455E+000	-8.67881E-005	12	...........	-327.56
	992	496.5	1.44069E+000	5.55451E-001	0.00000E+000	1.44255E+000	-8.58214E-005	12	...........	-327.56
	1000	500.5	1.44860E+000	5.75311E-001	0.00000E+000	1.45055E+000	-8.83548E-005	12	...........	-327.56
	1008	504.5	1.45662E+000	5.96069E-001	0.00000E+000	1.45855E+000	-8.67881E-005	12	...........	-327.56
	1016	508.5	1.46465E+000	6.15937E-001	0.00000E+000	1.46655E+000	-8.91214E-005	12	...........	-327.56
	1024	512.5	1.47255E+000	6.37348E-001	0.00000E+000	1.47455E+000	-8.83214E-005	12	...........	-327.56
	1032	516.5	1.48057E+000	6.58556E-001	0.00000E+000	1.48255E+000	-8.68881E-005	12	...........	-327.56
	1040	520.5	1.48858E+000	6.78037E-001	0.00000E+000	1.49055E+000	-8.30214E-005	12	...........	-327.56
	1048	524.5	1.49657E+000	6.99573E-001	0.00000E+000	1.49855E+000	-8.64214E-005	12	...........	-327.56
	1056	528.5	1.50449E+000	7.19252E-001	0.00000E+000	1.50655E+000	-8.60214E-005	12	...........	-327.56
	1064	532.5	1.51250E+000	7.42538E-001	0.00000E+000	1.51455E+000	-8.95548E-005	12	...........	-327.56
	1072	536.5	1.52051E+000	7.63004E-001	0.00000E+000	1.52255E+000	-8.63548E-005	12	...........	-327.56
	1080	540.5	1.52844E+000	7.83142E-001	0.00000E+000	1.53055E+000	-8.88214E-005	12	...........	-327.56
	1088	544.5	1.53639E+000	8.03048E-001	0.00000E+000	1.53855E+000	-8.76881E-005	12	...........	-327.56
	1096	548.5	1.54440E+000	8.26453E-001	0.00000E+000	1.54655E+000	-8.76548E-005	12	...........	-327.56
	1104	552.5	1.55233E+000	8.45550E-001	0.00000E+000	1.55455E+000	-8.71881E-005	12	...........	-327.56
	1112	556.5	1.56030E+000	8.69813E-001	0.00000E+000	1.56255E+000	-8.43214E-005	12	...........	-327.56
	1120	560.5	1.56834E+000	8.92020E-001	0.00000E+000	1.57055E+000	-8.88214E-005	12	...........	-327.56
	1128	564.5	1.57625E+000	9.13451E-001	0.00000E+000	1.57855E+000	-9.22214E-005	12	...........	-327.56
	1136	568.5	1.58427E+000	9.37182E-001	0.00000E+000	1.58655E+000	-8.66548E-005	12	...........	-327.56
	1144	572.5	1.59229E+000	9.60576E-001	0.00000E+000	1.59455E+000	-8.87881E-005	12	...........	-327.56
	1152	576.5	1.60020E+000	9.79266E-001	0.00000E+000	1.60255E+000	-8.94548E-005	12	...........	-327.56
	1160	580.5	1.60821E+000	1.00482E+000	0.00000E+000	1.61055E+000	-8.72548E-005	12	...........	-327.56
	1168	584.5	1.61624E+000	1.02139E+000	0.00000E+000	1.61855E+000	-8.64548E-005	12	...........	-327.56
	1176	588.5	1.62423E+000	1.04573E+000	0.00000E+000	1.62655E+000	-8.76214E-005	12	...........	-327.56
	1184	592.5	1.63214E+000	1.07065E+000	0.00000E+000	1.63455E+000	-8.76214E-005	12	...........	-327.56
	1192	596.5	1.64014E+000	1.08980E+000	0.00000E+000	1.64255E+000	-8.95548E-005	12	...........	-327.56
	1200	600.5	1.64814E+000	1.11414E+000	0.00000E+000	1.65055E+000	-8.58214E-005	12	...........	-327.56
	1208	604.5	1.65605E+000	1.14564E+000	0.00000E+000	1.65855E+000	-8.87214E-005	12	...........	-327.56
	1216	608.5	1.66405E+000	1.17031E+000	0.00000E+000	1.66655E+000	-8.83548E-005	12	...........	-327.56
	1224	612.5	1.67212E+000	1.18539E+000	0.00000E+000	1.67455E+000	-9.07548E-005	12	...........	-327.56
	1232	616.5	1.67997E+000	1.21299E+000	0.00000E+000	1.68255E+000	-8.66881E-005	12	...........	-327.56
	1240	620.5	1.68800E+000	1.23634E+000	0.00000E+000	1.69055E+000	-8.78214E-005	12	...........	-327.56
	1248	624.5	1.69602E+000	1.25279E+000	0.00000E+000	1.69855E+000	-8.83881E-005	12	...........	-327.56
	1256	628.5	1.69000E+000	1.25225E+000	0.00000E+000	1.69255E+000	-8.56548E-005	12	...........	-327.56
	1264	632.5	1.68201E+000	1.23354E+000	0.00000E+000	1.68455E+000	-8.84548E-005	12	...........	-327.56
	1272	636.5	1.67410E+000	1.21723E+000	0.00000E+000	1.67655E+000	-8.48881E-005	12	...........	-327.56
	1280	640.5	1.66609E+000	1.19663E+000	0.00000E+000	1.66855E+000	-9.06548E-005	12	...........	-327.56
	1288	644.5	1.65804E+000	1.17852E+000	0.00000E+000	1.66055E+000	-8.68548E-005	12	...........	-327.56
	1296	648.5	1.65014E+000	1.16422E+000	0.00000E+000	1.65255E+000	-8.50881E-005	12	...........	-327.56
	1304	652.5	1.64215E+000	1.14273E+000	0.00000E+000	1.64455E+000	-8.90548E-005	12	...........	-327.56
	1312	656.5	1.63413E+000	1.12134E+000	0.00000E+000	1.63655E+000	-9.03548E-005	12	...........	-327.56
	1320	660.5	1.62612E+000	1.10486E+000	0.00000E+000	1.62855E+000	-8.95548E-005	12	...........	-327.56
	1328	664.5	1.61821E+000	1.08242E+000	0.00000E+000	1.62055E+000	-9.00881E-005	12	...........	-327.56
	1336	668.5	1.61018E+000	1.06668E+000	0.00000E+000	1.61255E+000	-8.75881E-005	12	...........	-327.56
	1344	672.5	1.60217E+000	1.04384E+000	0.00000E+000	1.60455E+000	-9.20214E-005	12	...........	-327.56
	1352	676.5	1.59425E+000	1.02560E+000	0.00000E+000	1.59655E+000	-8.66214E-005	12	...........	-327.56
	1360	680.5	1.58623E+000	1.01067E+000	0.00000E+000	1.58855E+000	-8.98548E-005	12	...........	-327.56
	1368	684.5	1.57822E+000	9.82643E-001	0.00000E+000	1.58055E+000	-8.73881E-005	12	...........	-327.56
	1376	688.5	1.57030E+000	9.61772E-001	0.00000E+000	1.57255E+000	-8.61881E-005	12	...........	-327.56
	1384	692.5	1.56228E+000	9.48265E-001	0.00000E+000	1.56455E+000	-8.57881E-005	12	...........	-327.56
	1392	696.5	1.55428E+000	9.26383E-001	0.00000E+000	1.55655E+000	-9.12881E-005	12	...........	-327.56
	1400	700.5	1.54634E+000	9.08200E-001	0.00000E+000	1.54855E+000	-8.65881E-005	12	...........	-327.56
	1408	704.5	1.53836E+000	8.88792E-001	0.00000E+000	1.54055E+000	-9.02881E-005	12	...........	-327.56
	1416	708.5	1.53036E+000	8.69315E-001	0.00000E+000	1.53255E+000	-9.01548E-005	12	...........	-327.56
	1424	712.5	1.52244E+000	8.50755E-001	0.00000E+000	1.52455E+000	-9.05548E-005	12	...........	-327.56
	1432	716.5	1.51444E+000	8.29601E-001	0.00000E+000	1.51655E+000	-8.79881E-005	12	...........	-327.56
	1440	720.5	1.50642E+000	8.08728E-001	0.00000E+000	1.50855E+000	-8.95214E-005	12	...........	-327.56
	1448	724.5	1.49841E+000	7.88098E-001	0.00000E+000	1.50055E+000	-9.22548E-005	12	...........	-327.56
	1456	728.5	1.49052E+000	7.67100E-001	0.00000E+000	1.49255E+000	-9.38214E-005	12	...........	-327.56
	1464	732.5	1.48251E+000	7.47257E-001	0.00000E+000	1.48455E+000	-9.04214E-005	12	...........	-327.56
	1472	736.5	1.47449E+000	7.29278E-001	0.00000E+000	1.47655E+000	-9.02214E-005	12	...........	-327.56
	1480	740.5	1.46658E+000	7.11084E-001	0.00000E+000	1.46855E+000	-9.26881E-005	12	...........	-327.56
	1488	744.5	1.45856E+000	6.91674E-001	0.00000E+000	1.46055E+000	-9.00214E-005	12	...........	-327.56
	1496	748.5	1.45056E+000	6.70254E-001	0.00000E+000	1.45255E+000	-8.91548E-005	12	...........	-327.56
	1504	752.5	1.44262E+000	6.52705E-001	0.00000E+000	1.44455E+000	-8.98881E-005	12	...........	-327.56
	1512	756.5	1.43463E+000	6.33229E-001	0.00000E+000	1.43655E+000	-8.92881E-005	12	...........	-327.56
	1520	760.5	1.42664E+000	6.13487E-001	0.00000E+000	1.42855E+000	-8.68548E-005	12	...........	-327.56
	1528	764.5	1.41869E+000	5.92131E-001	0.00000E+000	1.42055E+000	-8.86214E-005	12	...........	-327.56
	1536	768.5	1.41069E+000	5.71318E-001	0.00000E+000	1.41255E+000	-9.05548E-005	12	...........	-327.56
	1544	772.5	1.40268E+000	5.50943E-001	0.00000E+000	1.40455E+000	-8.72881E-005	12	...........	-327.56
	1552	776.5	1.39473E+000	5.31035E-001	0.00000E+000	1.39655E+000	-8.74881E-005	12	...........	-327.56
	1560	780.5	1.38677E+000	5.11749E-001	0.00000E+000	1.38855E+000	-8.76881E-005	12	...........	-327.56
	1568	784.5	1.37873E+000	4.93454E-001	0.00000E+000	1.38055E+000	-9.05881E-005	12	...........	-327.56
	1576	788.5	1.37072E+000	4.75219E-001	0.00000E+000	1.37255E+000	-9.24214E-005	12	...........	-327.56
	1584	792.5	1.36284E+000	4.57147E-001	0.00000E+000	1.36455E+000	-9.15881E-005	12	...........	-327.56
	1592	796.5	1.35481E+000	4.37633E-001	0.00000E+000	1.35655E+000	-9.03881E-005	12	...........	-327.56
	1600	800.5	1.34680E+000	4.19868E-001	0.00000E+000	1.34855E+000	-8.67214E-005	12	...........	-327.56
	1608	804.5	1.33889E+000	4.03091E-001	0.00000E+000	1.34055E+000	-9.20548E-005	12	...........	-327.56
	1616	808.5	1.33092E+000	3.86393E-001	0.00000E+000	1.33255E+000	-9.09881E-005	12	...........	-327.56
	1624	812.5	1.32291E+000	3.70370E-001	0.00000E+000	1.32455E+000	-9.42548E-005	12	...........	-327.56
	1632	816.5	1.31500E+000	3.53978E-001	0.00000E+000	1.31655E+000	-8.73214E-005	12	...........	-327.56
	1640	820.5	1.30701E+000	3.37611E-001	0.00000E+000	1.30855E+000	-8.93214E-005	12	...........	-327.56
	1648	824.5	1.29898E+000	3.21611E-001	0.00000E+000	1.30055E+000	-8.75548E-005	12	...........	-327.56
	1656	828.5	1.29104E+000	3.06431E-001	0.00000E+000	1.29255E+000	-8.85881E-005	12	...........	-327.56
	1664	832.5	1.28307E+000	2.91831E-001	0.00000E+000	1.28455E+000	-8.86214E-005	12	...........	-327.56
	1672	836.5	1.27506E+000	2.77078E-001	0.00000E+000	1.27655E+000	-8.76548E-005	12	...........	-327.56
	1680	840.5	1.26709E+000	2.62695E-001	0.00000E+000	1.26855E+000	-8.81214E-005	12	...........	-327.56
	1688	844.5	1.25911E+000	2.49157E-001	0.00000E+000	1.26055E+000	-9.11548E-005	12	...........	-327.56
	1696	848.5	1.25078E+000	2.34992E-001	0.00000E+000	1.25255E+000	-8.56214E-005	11	...........	-327.56
	1704	852.5	1.24279E+000	2.21872E-001	0.00000E+000	1.24455E+000	-8.72881E-005	11	...........	-327.56
	1712	856.5	1.23490E+000	2.08858E-001	0.00000E+000	1.23655E+000	-8.59881E-005	11	...........	-327.56
	1720	860.5	1.22690E+000	1.96240E-001	0.00000E+000	1.22855E+000	-9.16214E-005	11	...........	-327.56
	1728	864.5	1.21889E+000	1.83846E-001	0.00000E+000	1.22055E+000	-8.52214E-005	11	...........	-327.56
	1736	868.5	1.21099E+000	1.71618E-001	0.00000E+000	1.21255E+000	-8.86548E-005	11	...........	-327.56
	1744	872.5	1.20297E+000	1.59740E-001	0.00000E+000	1.20455E+000	-8.83548E-005	11	...........	-327.56
	1752	876.5	1.19501E+000	1.48295E-001	0.00000E+000	1.19655E+000	-8.81214E-005	11	...........	-327.56
	1760	880.5	1.18706E+000	1.36743E-001	0.00000E+000	1.18855E+000	-8.66548E-005	11	...........	-327.56
	1768	884.5	1.17909E+000	1.25223E-001	0.00000E+000	1.18055E+000	-8.81548E-005	11	...........	-327.56
	1776	888.5	1.17110E+000	1.13946E-001	0.00000E+000	1.17255E+000	-8.80214E-005	11	...........	-327.56
	1784	892.5	1.16313E+000	1.03603E-001	0.00000E+000	1.16455E+000	-9.18548E-005	11	...........	-327.56
	1792	896.5	1.15514E+000	9.40590E-002	0.00000E+000	1.15655E+000	-8.83881E-005	11	...........	-327.56
	1800	900.5	1.14713E+000	8.53863E-002	0.00000E+000	1.14855E+000	-9.02548E-005	11	...........	-327.56
	1808	904.5	1.13917E+000	7.74362E-002	0.00000E+000	1.14055E+000	-8.84214E-005	11	...........	-327.56
	1816	908.5	1.13117E+000	6.99828E-002	0.00000E+000	1.13255E+000	-8.85214E-005	11	...........	-327.56
	1824	912.5	1.12318E+000	6.30757E-002	0.00000E+000	1.12455E+000	-9.05881E-005	11	...........	-327.56
	1832	916.5	1.11515E+000	5.66118E-002	0.00000E+000	1.11655E+000	-9.39214E-005	11	...........	-327.56
	1840	920.5	1.10727E+000	5.05978E-002	0.00000E+000	1.10855E+000	-8.83548E-005	11	...........	-327.56
	1848	924.5	1.09924E+000	4.49952E-002	0.00000E+000	1.10055E+000	-8.98214E-005	11	...........	-327.56
	1856	928.5	1.09119E+000	3.98767E-002	0.00000E+000	1.09255E+000	-8.86548E-005	11	...........	-327.56
	1864	932.5	1.08333E+000	3.50790E-002	0.00000E+000	1.08455E+000	-8.75214E-005	11	...........	-327.56
	1872	936.5	1.07528E+000	3.05548E-002	0.00000E+000	1.07655E+000	-9.35214E-005	11	...........	-327.56
	1880	940.5	1.06726E+000	2.65020E-002	0.00000E+000	1.06855E+000	-8.71548E-005	11	...........	-327.56
	1888	944.5	1.05911E+000	2.27703E-002	0.00000E+000	1.06055E+000	-8.69548E-005	10	...........	-327.56
	1896	948.5	1.05114E+000	1.94341E-002	0.00000E+000	1.05255E+000	-8.82214E-005	10	...........	-327.56
	1904	952.5	1.04315E+000	1.65880E-002	0.00000E+000	1.04455E+000	-8.72548E-005	10	...........	-327.56
	1912	956.5	1.03522E+000	1.40139E-002	0.00000E+000	1.03655E+000	-9.16214E-005	10	...........	-327.56
	1920	960.5	1.02724E+000	1.19117E-002	0.00000E+000	1.02855E+000	-8.65548E-005	10	...........	-327.56
	1928	964.5	1.01925E+000	1.01029E-002	0.00000E+000	1.02055E+000	-8.95548E-005	10	...........	-327.56
	1936	968.5	1.01131E+000	8.80844E-003	0.00000E+000	1.01255E+000	-8.64881E-005	10	...........	-327.56
	1944	972.5	1.00336E+000	7.99944E-003	0.00000E+000	1.00455E+000	-8.86214E-005	10	...........	-327.56
	1952	976.5	9.95308E-001	7.55638E-003	0.00000E+000	9.96550E-001	-8.54548E-005	10	...........	-327.56
	1960	980.5	9.87235E-001	7.17009E-003	0.00000E+000	9.88550E-001	-9.10881E-005	10	...........	-327.56
	1968	984.5	9.79384E-001	6.81779E-003	0.00000E+000	9.80550E-001	-8.61548E-005	10	...........	-327.56
	1976	988.5	9.71356E-001	6.56605E-003	0.00000E+000	9.72550E-001	-8.82214E-005	10	...........	-327.56
	1984	992.5	9.63315E-001	6.41408E-003	0.00000E+000	9.64550E-001	-8.95881E-005	10	...........	-327.56
	1992	996.5	9.55417E-001	6.19018E-003	0.00000E+000	9.56550E-001	-8.99548E-005	10	...........	-327.56
	2000	1000.5	9.47398E-001	6.03284E-003	0.00000E+000	9.48550E-001	-9.00214E-005	10	...........	-327.56
	2008	1004.5	9.39372E-001	6.00220E-003	0.00000E+000	9.40550E-001	-8.77214E-005	10	...........	-327.56
	2016	1008.5	9.31439E-001	5.99379E-003	0.00000E+000	9.32550E-001	-8.96214E-005	10	...........	-327.56
	2024	1012.5	9.23423E-001	5.96958E-003	0.00000E+000	9.24550E-001	-9.31881E-005	10	...........	-327.56
	2032	1016.5	9.15432E-001	5.96682E-003	0.00000E+000	9.16550E-001	-9.01214E-005	10	...........	-327.56
	2040	1020.5	9.07505E-001	5.96692E-003	0.00000E+000	9.08550E-001	-8.94548E-005	10	...........	-327.56
	2048	1024.5	8.99498E-001	5.94734E-003	0.00000E+000	9.00550E-001	-8.61214E-005	10	...........	-327.56
	2056	1028.5	8.91448E-001	5.91135E-003	0.00000E+000	8.92550E-001	-9.02881E-005	10	...........	-327.56
	2064	1032.5	8.83404E-001	5.88765E-003	0.00000E+000	8.84550E-001	-8.75214E-005	10	...........	-327.56
	2072	1036.5	8.75527E-001	5.87859E-003	0.00000E+000	8.76550E-001	-8.59548E-005	10	...........	-327.56
	2080	1040.5	8.67486E-001	5.88708E-003	0.00000E+000	8.68550E-001	-8.79548E-005	10	...........	-327.56
	2088	1044.5	8.59462E-001	5.87079E-003	0.00000E+000	8.60550E-001	-8.89881E-005	10	...........	-327.56
	2096	1048.5	8.51529E-001	5.82809E-003	0.00000E+000	8.52550E-001	-8.75214E-005	10	...........	-327.56
	2104	1052.5	8.43504E-001	5.79069E-003	0.00000E+000	8.44550E-001	-9.04881E-005	10	...........	-327.56
	2112	1056.5	8.35456E-001	5.74717E-003	0.00000E+000	8.36550E-001	-9.10881E-005	10	...........	-327.56
	2120	1060.5	8.27548E-001	5.74277E-003	0.00000E+000	8.28550E-001	-9.40881E-005	10	...........	-327.56
	2128	1064.5	8.19520E-001	5.72924E-003	0.00000E+000	8.20550E-001	-9.00881E-005	10	...........	-327.56
	2136	1068.5	8.11560E-001	5.76606E-003	0.00000E+000	8.12550E-001	-9.09214E-005	10	...........	-327.56
	2144	1072.5	8.03613E-001	5.78665E-003	0.00000E+000	8.04550E-001	-9.07548E-005	10	...........	-327.56
	2152	1076.5	7.95605E-001	5.75372E-003	0.00000E+000	7.96550E-001	-9.02548E-005	10	...........	-327.56
	2160	1080.5	7.87565E-001	5.75566E-003	0.00000E+000	7.88550E-001	-9.02214E-005	10	...........	-327.56
	2168	1084.5	7.79626E-001	5.73202E-003	0.00000E+000	7.80550E-001	-9.03214E-005	10	...........	-327.56
	2176	1088.5	7.71607E-001	5.65497E-003	0.00000E+000	7.72550E-001	-9.04548E-005	10	...........	-327.56
	2184	1092.5	7.63576E-001	5.59998E-003	0.00000E+000	7.64550E-001	-8.92881E-005	10	...........	-327.56
	2192	1096.5	7.55558E-001	5.54011E-003	0.00000E+000	7.56550E-001	-8.62214E-005	10	...........	-327.56
	2200	1100.5	7.47642E-001	5.50190E-003	0.00000E+000	7.48550E-001	-8.66881E-005	10	...........	-327.56
	2208	1104.5	7.39610E-001	5.44970E-003	0.00000E+000	7.40550E-001	-9.07881E-005	10	...........	-327.56
	2216	1108.5	7.31582E-001	5.47595E-003	0.00000E+000	7.32550E-001	-8.93881E-005	10	...........	-327.56
	2224	1112.5	7.23668E-001	5.41860E-003	0.00000E+000	7.24550E-001	-8.90214E-005	10	...........	-327.56
	2232	1116.5	7.15681E-001	5.40746E-003	0.00000E+000	7.16550E-001	-8.99881E-005	10	...........	-327.56
	2240	1120.5	7.07655E-001	5.47632E-003	0.00000E+000	7.08550E-001	-8.66214E-005	10	...........	-327.56
	2248	1124.5	6.99736E-001	5.64314E-003	0.00000E+000	7.00550E-001	-8.94548E-005	10	...........	-327.56
	2256	1128.5	6.91693E-001	5.77381E-003	0.00000E+000	6.92550E-001	-8.85214E-005	10	...........	-327.56
	2264	1132.5	6.83661E-001	5.81389E-003	0.00000E+000	6.84550E-001	-8.85548E-005	10	...........	-327.56
	2272	1136.5	6.75743E-001	5.78425E-003	0.00000E+000	6.76550E-001	-8.71548E-005	10	...........	-327.56
	2280	1140.5	6.67736E-001	5.68984E-003	0.00000E+000	6.68550E-001	-9.18881E-005	10	...........	-327.56
	2288	1144.5	6.59699E-001	5.66542E-003	0.00000E+000	6.60550E-001	-8.95548E-005	10	...........	-327.56
	2296	1148.5	6.51772E-001	5.60276E-003	0.00000E+000	6.52550E-001	-8.80214E-005	10	...........	-327.56
	2304	1152.5	6.43764E-001	5.58384E-003	0.00000E+000	6.44550E-001	-8.92548E-005	10	...........	-327.56
	2312	1156.5	6.35718E-001	5.52325E-003	0.00000E+000	6.36550E-001	-8.98548E-005	10	...........	-327.56
	2320	1160.5	6.27698E-001	5.47893E-003	0.00000E+000	6.28550E-001	-8.59881E-005	10	...........	-327.56
	2328	1164.5	6.19794E-001	5.41105E-003	0.00000E+000	6.20550E-001	-8.82881E-005	10	...........	-327.56
	2336	1168.5	6.11769E-001	5.32677E-003	0.00000E+000	6.12550E-001	-8.88548E-005	10	...........	-327.56
	2344	1172.5	6.03731E-001	5.22931E-003	0.00000E+000	6.04550E-001	-9.38214E-005	10	...........	-327.56
	2352	1176.5	5.95833E-001	5.13397E-003	0.00000E+000	5.96550E-001	-8.48881E-005	10	...........	-327.56
	2360	1180.5	5.87786E-001	4.98486E-003	0.00000E+000	5.88550E-001	-8.80881E-005	10	...........	-327.56
	2368	1184.5	5.79771E-001	4.85853E-003	0.00000E+000	5.80550E-001	-8.69548E-005	10	...........	-327.56
	2376	1188.5	5.71846E-001	4.71493E-003	0.00000E+000	5.72550E-001	-8.72881E-005	10	...........	-327.56
	2384	1192.5	5.63812E-001	4.56225E-003	0.00000E+000	5.64550E-001	-8.88881E-005	10	...........	-327.56
	2392	1196.5	5.55803E-001	4.38477E-003	0.00000E+000	5.56550E-001	-8.97214E-005	10	...........	-327.56
	2400	1200.5	5.47873E-001	4.22898E-003	0.00000E+000	5.48550E-001	-8.45214E-005	10	...........	-327.56
	2408	1204.5	5.39890E-001	4.06245E-003	0.00000E+000	5.40550E-001	-9.05214E-005	10	...........	-327.56
	2416	1208.5	5.31833E-001	3.87267E-003	0.00000E+000	5.32550E-001	-8.57214E-005	10	...........	-327.56
	2424	1212.5	5.23889E-001	3.72699E-003	0.00000E+000	5.24550E-001	-8.84214E-005	10	...........	-327.56
	2432	1216.5	5.15903E-001	3.53720E-003	0.00000E+000	5.16550E-001	-8.79548E-005	10	...........	-327.56
	2440	1220.5	5.07905E-001	3.33748E-003	0.00000E+000	5.08550E-001	-9.09214E-005	10	...........	-327.56
	2448	1224.5	4.99879E-001	3.13851E-003	0.00000E+000	5.00550E-001	-9.15214E-005	10	...........	-327.56
	2456	1228.5	4.91972E-001	2.93028E-003	0.00000E+000	4.92550E-001	-8.84214E-005	10	...........	-327.56
	2464	1232.5	4.83928E-001	2.72291E-003	0.00000E+000	4.84550E-001	-8.92881E-005	10	...........	-327.56
	2472	1236.5	4.75912E-001	2.48802E-003	0.00000E+000	4.76550E-001	-8.92548E-005	10	...........	-327.56
	2480	1240.5	4.67751E-001	2.20341E-003	0.00000E+000	4.68550E-001	-8.83214E-005	9	...........	-327.56
	2488	1244.5	4.59745E-001	1.96134E-003	0.00000E+000	4.60550E-001	-9.11548E-005	9	...........	-327.56
	2496	1248.5	4.51770E-001	1.68254E-003	0.00000E+000	4.52550E-001	-9.24214E-005	9	...........	-327.56
	2504	1252.5	4.43866E-001	1.41513E-003	0.00000E+000	4.44550E-001	-8.70214E-005	9	...........	-327.56
	2512	1256.5	4.35868E-001	1.18189E-003	0.00000E+000	4.36550E-001	-8.77548E-005	9	...........	-327.56
	2520	1260.5	4.27882E-001	9.32398E-004	0.00000E+000	4.28550E-001	-8.97548E-005	9	...........	-327.56
	2528	1264.5	4.19953E-001	6.72808E-004	0.00000E+000	4.20550E-001	-8.85881E-005	9	...........	-327.56
	2536	1268.5	4.11988E-001	3.86168E-004	0.00000E+000	4.12550E-001	-9.14214E-005	9	...........	-327.56
	2544	1272.5	4.03895E-001	8.66577E-005	0.00000E+000	4.04550E-001	-8.79548E-005	8	...........	-327.56
	2552	1276.5	3.96223E-001	-1.48211E-004	0.00000E+000	3.96550E-001	-8.75548E-005	8	...........	-327.56
	2560	1280.5	3.88097E-001	-4.44145E-004	0.00000E+000	3.88550E-001	-9.39881E-005	9	...........	-327.56
	2568	1284.5	3.80106E-001	-7.09351E-004	0.00000E+000	3.80550E-001	-9.12548E-005	9	...........	-327.56
	2576	1288.5	3.72104E-001	-1.00199E-003	0.00000E+000	3.72550E-001	-9.26548E-005	9	...........	-327.56
	2584	1292.5	3.64232E-001	-1.26076E-003	0.00000E+000	3.64550E-001	-8.94881E-005	9	...........	-327.56
	2592	1296.5	3.56239E-001	-1.55337E-003	0.00000E+000	3.56550E-001	-8.72881E-005	9	...........	-327.56
	2600	1300.5	3.48236E-001	-1.84665E-003	0.00000E+000	3.48550E-001	-8.62214E-005	9	...........	-327.56
	2608	1304.5	3.40348E-001	-2.15538E-003	0.00000E+000	3.40550E-001	-8.89214E-005	9	...........	-327.56
	2616	1308.5	3.32368E-001	-2.49765E-003	0.00000E+000	3.32550E-001	-7.98548E-005	9	...........	-327.56
	2624	1312.5	3.24086E-001	-2.93079E-003	0.00000E+000	3.24550E-001	-9.00881E-005	10	...........	-327.56
	2632	1316.5	3.16166E-001	-3.30573E-003	0.00000E+000	3.16550E-001	-9.16214E-005	10	...........	-327.56
	2640	1320.5	3.08150E-001	-3.72234E-003	0.00000E+000	3.08550E-001	-9.18548E-005	10	...........	-327.56
	2648	1324.5	3.00175E-001	-4.12862E-003	0.00000E+000	3.00550E-001	-8.96214E-005	10	...........	-327.56
	2656	1328.5	2.92219E-001	-4.54468E-003	0.00000E+000	2.92550E-001	-9.07881E-005	10	...........	-327.56
	2664	1332.5	2.84237E-001	-5.10261E-003	0.00000E+000	2.84550E-001	-8.97548E-005	10	...........	-327.56
	2672	1336.5	2.76213E-001	-5.71050E-003	0.00000E+000	2.76550E-001	-9.25214E-005	10	...........	-327.56
	2680	1340.5	2.68244E-001	-5.83962E-003	0.00000E+000	2.68550E-001	-8.77548E-005	10	...........	-327.56
	2688	1344.5	2.60277E-001	-6.40465E-003	0.00000E+000	2.60550E-001	-8.95214E-005	10	...........	-327.56
	2696	1348.5	2.52250E-001	-6.30052E-003	0.00000E+000	2.52550E-001	-8.66881E-005	10	...........	-327.56
	2704	1352.5	2.44214E-001	-7.06659E-003	0.00000E+000	2.44550E-001	-9.04881E-005	10	...........	-327.56
	2712	1356.5	2.36298E-001	-7.27980E-003	0.00000E+000	2.36550E-001	-8.46881E-005	10	...........	-327.56
	2720	1360.5	2.28258E-001	-7.77480E-003	0.00000E+000	2.28550E-001	-8.83548E-005	10	...........	-327.56
	2728	1364.5	2.20242E-001	-7.74901E-003	0.00000E+000	2.20550E-001	-9.03881E-005	10	...........	-327.56
	2736	1368.5	2.12326E-001	-7.72505E-003	0.00000E+000	2.12550E-001	-8.91214E-005	10	...........	-327.56
	2744	1372.5	2.04314E-001	-8.27395E-003	0.00000E+000	2.04550E-001	-8.63881E-005	10	...........	-327.56
	2752	1376.5	1.96310E-001	-8.42326E-003	0.00000E+000	1.96550E-001	-9.18881E-005	10	...........	-327.56
	2760	1380.5	1.88366E-001	-9.64719E-003	0.00000E+000	1.88550E-001	-9.13881E-005	10	...........	-327.56
	2768	1384.5	1.80366E-001	-9.13107E-003	0.00000E+000	1.80550E-001	-8.88881E-005	10	...........	-327.56
	2776	1388.5	1.72334E-001	-9.26292E-003	0.00000E+000	1.72550E-001	-8.79881E-005	10	...........	-327.56
	2784	1392.5	1.64395E-001	-9.30147E-003	0.00000E+000	1.64550E-001	-9.33214E-005	10	...........	-327.56
	2792	1396.5	1.56373E-001	-9.31515E-003	0.00000E+000	1.56550E-001	-9.14548E-005	10	...........	-327.56
	2800	1400.5	1.48353E-001	-9.56156E-003	0.00000E+000	1.48550E-001	-8.87214E-005	10	...........	-327.56
	2808	1404.5	1.40420E-001	-9.47159E-003	0.00000E+000	1.40550E-001	-8.96548E-005	10	...........	-327.56
	2816	1408.5	1.32409E-001	-9.28199E-003	0.00000E+000	1.32550E-001	-9.17881E-005	10	...........	-327.56
	2824	1412.5	1.24371E-001	-9.11348E-003	0.00000E+000	1.24550E-001	-8.83548E-005	10	...........	-327.56
	2832	1416.5	1.16335E-001	-9.16443E-003	0.00000E+000	1.16550E-001	-8.92214E-005	10	...........	-327.56
	2840	1420.5	1.08420E-001	-9.08209E-003	0.00000E+000	1.08550E-001	-8.69548E-005	10	...........	-327.56
	2848	1424.5	1.00442E-001	-9.13481E-003	0.00000E+000	1.00550E-001	-9.20214E-005	10	...........	-327.56
	2856	1428.5	9.24171E-002	-9.13103E-003	0.00000E+000	9.25500E-002	-8.80214E-005	10	...........	-327.56
	2864	1432.5	8.44967E-002	-9.09979E-003	0.00000E+000	8.45500E-002	-9.21214E-005	10	...........	-327.56
	2872	1436.5	7.64562E-002	-9.00749E-003	0.00000E+000	7.65500E-002	-8.84214E-005	10	...........	-327.56
	2880	1440.5	6.84383E-002	-8.68059E-003	0.00000E+000	6.85500E-002	-9.13548E-005	10	...........	-327.56
	2888	1444.5	6.05177E-002	-8.69681E-003	0.00000E+000	6.05500E-002	-8.99214E-005	10	...........	-327.56
	2896	1448.5	5.24945E-002	-8.34857E-003	0.00000E+000	5.25500E-002	-8.99881E-005	10	...........	-327.56
	2904	1452.5	4.44551E-002	-8.19894E-003	0.00000E+000	4.45500E-002	-9.17214E-005	10	...........	-327.56
	2912	1456.5	3.65292E-002	-8.05833E-003	0.00000E+000	3.65500E-002	-9.23881E-005	10	...........	-327.56
	2920	1460.5	2.85144E-002	-7.69797E-003	0.00000E+000	2.85500E-002	-8.77881E-005	10	...........	-327.56
	2928	1464.5	2.04601E-002	-7.34854E-003	0.00000E+000	2.05500E-002	-9.03881E-005	10	...........	-327.56
	2936	1468.5	1.25055E-002	-6.98919E-003	0.00000E+000	1.25500E-002	-8.71548E-005	10	...........	-327.56
	2944	1472.5	4.50232E-003	-6.68276E-003	0.00000E+000	4.55004E-003	-9.02214E-005	10	...........	-327.56
[...]
	9469	4735	7.20067E-001	6.93186E-002	0.00000E+000	7.21000E-001	-9.15881E-005	11	...........	-327.56
	9474	4737.5	7.25092E-001	6.84104E-002	0.00000E+000	7.26000E-001	-9.32214E-005	11	...........	-327.56
	9479	4740	7.29983E-001	6.74796E-002	0.00000E+000	7.31000E-001	-8.92881E-005	11	...........	-327.56
	9484	4742.5	7.35014E-001	6.66062E-002	0.00000E+000	7.36000E-001	-9.02548E-005	11	...........	-327.56
	9489	4745	7.40018E-001	6.59140E-002	0.00000E+000	7.41000E-001	-9.28548E-005	11	...........	-327.56
	9494	4747.5	7.45060E-001	6.49432E-002	0.00000E+000	7.46000E-001	-9.04214E-005	11	...........	-327.56
	9499	4750	7.50083E-001	6.43089E-002	0.00000E+000	7.51000E-001	-9.36548E-005	11	...........	-327.56
	9504	4752.5	7.55079E-001	6.39613E-002	0.00000E+000	7.56000E-001	-8.97548E-005	11	...........	-327.56
	9509	4755	7.59975E-001	6.32845E-002	0.00000E+000	7.61000E-001	-9.04548E-005	11	...........	-327.56
	9514	4757.5	7.65028E-001	6.24081E-002	0.00000E+000	7.66000E-001	-9.39214E-005	11	...........	-327.56
	9519	4760	7.70042E-001	6.18791E-002	0.00000E+000	7.71000E-001	-9.07881E-005	11	...........	-327.56
	9524	4762.5	7.75065E-001	6.13158E-002	0.00000E+000	7.76000E-001	-8.83548E-005	11	...........	-327.56
	9529	4765	7.80040E-001	6.06965E-002	0.00000E+000	7.81000E-001	-9.55881E-005	11	...........	-327.56
	9534	4767.5	7.84992E-001	6.01657E-002	0.00000E+000	7.86000E-001	-9.01214E-005	11	...........	-327.56
	9539	4770	7.89990E-001	5.95861E-002	0.00000E+000	7.91000E-001	-9.10548E-005	11	...........	-327.56
	9544	4772.5	7.95073E-001	5.90165E-002	0.00000E+000	7.96000E-001	-9.14214E-005	11	...........	-327.56
	9549	4775	8.00019E-001	5.86056E-002	0.00000E+000	8.01000E-001	-9.04214E-005	11	...........	-327.56
	9554	4777.5	8.05059E-001	5.81018E-002	0.00000E+000	8.06000E-001	-8.96881E-005	11	...........	-327.56
	9559	4780	8.09977E-001	5.75886E-002	0.00000E+000	8.11000E-001	-8.95881E-005	11	...........	-327.56
	9564	4782.5	8.15001E-001	5.72799E-002	0.00000E+000	8.16000E-001	-9.11548E-005	11	...........	-327.56
	9569	4785	8.19964E-001	5.67682E-002	0.00000E+000	8.21000E-001	-9.11548E-005	11	...........	-327.56
	9574	4787.5	8.25003E-001	5.61895E-002	0.00000E+000	8.26000E-001	-9.04548E-005	11	...........	-327.56
	9579	4790	8.29976E-001	5.58033E-002	0.00000E+000	8.31000E-001	-9.16548E-005	11	...........	-327.56
	9584	4792.5	8.34957E-001	5.53526E-002	0.00000E+000	8.36000E-001	-9.06881E-005	11	...........	-327.56
	9589	4795	8.39948E-001	5.51686E-002	0.00000E+000	8.41000E-001	-9.49214E-005	11	...........	-327.56
	9594	4797.5	8.44966E-001	5.49813E-002	0.00000E+000	8.46000E-001	-9.39214E-005	11	...........	-327.56
	9599	4800	8.49982E-001	5.45471E-002	0.00000E+000	8.51000E-001	-8.93548E-005	11	...........	-327.56
	9604	4802.5	8.54989E-001	5.42439E-002	0.00000E+000	8.56000E-001	-9.18548E-005	11	...........	-327.56
	9609	4805	8.59907E-001	5.38481E-002	0.00000E+000	8.61000E-001	-8.86214E-005	11	...........	-327.56
	9614	4807.5	8.64934E-001	5.38506E-002	0.00000E+000	8.66000E-001	-9.46548E-005	11	...........	-327.56
	9619	4810	8.69925E-001	5.34681E-002	0.00000E+000	8.71000E-001	-8.86881E-005	11	...........	-327.56
	9624	4812.5	8.74969E-001	5.32547E-002	0.00000E+000	8.76000E-001	-9.08214E-005	11	...........	-327.56
	9629	4815	8.79954E-001	5.30133E-002	0.00000E+000	8.81000E-001	-9.01881E-005	11	...........	-327.56
	9634	4817.5	8.84821E-001	5.29026E-002	0.00000E+000	8.86000E-001	-9.01881E-005	11	...........	-327.56
	9639	4820	8.89896E-001	5.30615E-002	0.00000E+000	8.91000E-001	-8.97548E-005	11	...........	-327.56
	9644	4822.5	8.94911E-001	5.24331E-002	0.00000E+000	8.96000E-001	-9.48881E-005	11	...........	-327.56
	9649	4825	8.99940E-001	5.23645E-002	0.00000E+000	9.01000E-001	-8.97881E-005	11	...........	-327.56
	9654	4827.5	9.04955E-001	5.22708E-002	0.00000E+000	9.06000E-001	-9.22548E-005	11	...........	-327.56
	9659	4830	9.09850E-001	5.21176E-002	0.00000E+000	9.11000E-001	-9.44548E-005	11	...........	-327.56
	9664	4832.5	9.14900E-001	5.21193E-002	0.00000E+000	9.16000E-001	-9.26214E-005	11	...........	-327.56
	9669	4835	9.19927E-001	5.17630E-002	0.00000E+000	9.21000E-001	-9.26548E-005	11	...........	-327.56
	9674	4837.5	9.24884E-001	5.18095E-002	0.00000E+000	9.26000E-001	-9.34214E-005	11	...........	-327.56
	9679	4840	9.29896E-001	5.17061E-002	0.00000E+000	9.31000E-001	-9.24214E-005	11	...........	-327.56
	9684	4842.5	9.34791E-001	5.15053E-002	0.00000E+000	9.36000E-001	-9.06548E-005	11	...........	-327.56
	9689	4845	9.39827E-001	5.13754E-002	0.00000E+000	9.41000E-001	-9.14881E-005	11	...........	-327.56
	9694	4847.5	9.44836E-001	5.11943E-002	0.00000E+000	9.46000E-001	-8.92214E-005	11	...........	-327.56
	9699	4850	9.49863E-001	5.10558E-002	0.00000E+000	9.51000E-001	-9.07214E-005	11	...........	-327.56
	9704	4852.5	9.54876E-001	5.07969E-002	0.00000E+000	9.56000E-001	-8.96214E-005	11	...........	-327.56
	9709	4855	9.59867E-001	5.10642E-002	0.00000E+000	9.61000E-001	-8.96214E-005	11	...........	-327.56
	9714	4857.5	9.64780E-001	5.07426E-002	0.00000E+000	9.66000E-001	-9.22214E-005	11	...........	-327.56
	9719	4860	9.69834E-001	5.08362E-002	0.00000E+000	9.71000E-001	-9.20881E-005	11	...........	-327.56
	9724	4862.5	9.74825E-001	5.08309E-002	0.00000E+000	9.76000E-001	-9.56548E-005	11	...........	-327.56
	9729	4865	9.79866E-001	5.06974E-002	0.00000E+000	9.81000E-001	-8.92214E-005	11	...........	-327.56
	9734	4867.5	9.84850E-001	5.09864E-002	0.00000E+000	9.86000E-001	-9.17214E-005	11	...........	-327.56
	9739	4870	9.89795E-001	5.10605E-002	0.00000E+000	9.91000E-001	-9.21548E-005	11	...........	-327.56
	9744	4872.5	9.94784E-001	5.12806E-002	0.00000E+000	9.96000E-001	-9.16214E-005	11	...........	-327.56
	9749	4875	9.99867E-001	5.13887E-002	0.00000E+000	1.00100E+000	-9.48214E-005	11	...........	-327.56
	9754	4877.5	1.00482E+000	5.18685E-002	0.00000E+000	1.00600E+000	-9.19548E-005	11	...........	-327.56
	9759	4880	1.00986E+000	5.20809E-002	0.00000E+000	1.01100E+000	-9.17548E-005	11	...........	-327.56
	9764	4882.5	1.01477E+000	5.24560E-002	0.00000E+000	1.01600E+000	-9.11548E-005	11	...........	-327.56
	9769	4885	1.01978E+000	5.31569E-002	0.00000E+000	1.02100E+000	-9.08214E-005	11	...........	-327.56
	9774	4887.5	1.02477E+000	5.42558E-002	0.00000E+000	1.02600E+000	-8.72881E-005	11	...........	-327.56
	9779	4890	1.02980E+000	5.48583E-002	0.00000E+000	1.03100E+000	-8.83881E-005	11	...........	-327.56
	9784	4892.5	1.03479E+000	5.59814E-002	0.00000E+000	1.03600E+000	-8.87881E-005	11	...........	-327.56
	9789	4895	1.03977E+000	5.71985E-002	0.00000E+000	1.04100E+000	-9.15214E-005	11	...........	-327.56
	9794	4897.5	1.04474E+000	5.85739E-002	0.00000E+000	1.04600E+000	-9.40548E-005	11	...........	-327.56
	9799	4900	1.04976E+000	6.00374E-002	0.00000E+000	1.05100E+000	-9.12548E-005	11	...........	-327.56
	9804	4902.5	1.05478E+000	6.18219E-002	0.00000E+000	1.05600E+000	-8.92881E-005	11	...........	-327.56
	9809	4905	1.05979E+000	6.39931E-002	0.00000E+000	1.06100E+000	-8.88881E-005	11	...........	-327.56
	9814	4907.5	1.06470E+000	6.64781E-002	0.00000E+000	1.06600E+000	-9.29214E-005	11	...........	-327.56
	9819	4910	1.06971E+000	6.90821E-002	0.00000E+000	1.07100E+000	-9.50881E-005	11	...........	-327.56
	9824	4912.5	1.07470E+000	7.18014E-002	0.00000E+000	1.07600E+000	-9.10881E-005	11	...........	-327.56
	9829	4915	1.07974E+000	7.51301E-002	0.00000E+000	1.08100E+000	-9.09214E-005	11	...........	-327.56
	9834	4917.5	1.08472E+000	7.84969E-002	0.00000E+000	1.08600E+000	-9.20214E-005	11	...........	-327.56
	9839	4920	1.08958E+000	8.25182E-002	0.00000E+000	1.09100E+000	-9.21548E-005	11	...........	-327.56
	9844	4922.5	1.09464E+000	8.64666E-002	0.00000E+000	1.09600E+000	-9.16214E-005	11	...........	-327.56
	9849	4925	1.09966E+000	9.06513E-002	0.00000E+000	1.10100E+000	-9.16881E-005	11	...........	-327.56
	9854	4927.5	1.10468E+000	9.53195E-002	0.00000E+000	1.10600E+000	-9.06881E-005	11	...........	-327.56
	9859	4930	1.10965E+000	1.00417E-001	0.00000E+000	1.11100E+000	-9.36548E-005	11	...........	-327.56
	9864	4932.5	1.11457E+000	1.04424E-001	0.00000E+000	1.11600E+000	-9.33881E-005	11	...........	-327.56
	9869	4935	1.11958E+000	1.08386E-001	0.00000E+000	1.12100E+000	-8.98214E-005	11	...........	-327.56
	9874	4937.5	1.12464E+000	1.12863E-001	0.00000E+000	1.12600E+000	-9.17881E-005	11	...........	-327.56
	9879	4940	1.12956E+000	1.17378E-001	0.00000E+000	1.13100E+000	-9.02214E-005	11	...........	-327.56
	9884	4942.5	1.13459E+000	1.21996E-001	0.00000E+000	1.13600E+000	-9.09214E-005	11	...........	-327.56
	9889	4945	1.13947E+000	1.27646E-001	0.00000E+000	1.14100E+000	-9.09548E-005	11	...........	-327.56
	9894	4947.5	1.14450E+000	1.32126E-001	0.00000E+000	1.14600E+000	-9.16214E-005	11	...........	-327.56
	9899	4950	1.14950E+000	1.36499E-001	0.00000E+000	1.15100E+000	-9.07214E-005	11	...........	-327.56
	9904	4952.5	1.15454E+000	1.41117E-001	0.00000E+000	1.15600E+000	-9.02548E-005	11	...........	-327.56
	9909	4955	1.15952E+000	1.46305E-001	0.00000E+000	1.16100E+000	-9.07548E-005	11	...........	-327.56
	9914	4957.5	1.16451E+000	1.51183E-001	0.00000E+000	1.16600E+000	-8.75881E-005	11	...........	-327.56
	9919	4960	1.16950E+000	1.56467E-001	0.00000E+000	1.17100E+000	-8.84548E-005	11	...........	-327.56
	9924	4962.5	1.17440E+000	1.61900E-001	0.00000E+000	1.17600E+000	-8.96214E-005	11	...........	-327.56
	9929	4965	1.17945E+000	1.67672E-001	0.00000E+000	1.18100E+000	-9.29214E-005	11	...........	-327.56
	9934	4967.5	1.18447E+000	1.73605E-001	0.00000E+000	1.18600E+000	-9.04214E-005	11	...........	-327.56
	9939	4970	1.18944E+000	1.79481E-001	0.00000E+000	1.19100E+000	-9.18881E-005	11	...........	-327.56
	9944	4972.5	1.19437E+000	1.85728E-001	0.00000E+000	1.19600E+000	-8.94548E-005	11	...........	-327.56
	9949	4975	1.19936E+000	1.91871E-001	0.00000E+000	1.20100E+000	-8.94214E-005	11	...........	-327.56
	9954	4977.5	1.20438E+000	1.98111E-001	0.00000E+000	1.20600E+000	-8.99214E-005	11	...........	-327.56
	9959	4980	1.20941E+000	2.05248E-001	0.00000E+000	1.21100E+000	-8.95548E-005	11	...........	-327.56
	9964	4982.5	1.21437E+000	2.11412E-001	0.00000E+000	1.21600E+000	-9.07214E-005	11	...........	-327.56
	9969	4985	1.21924E+000	2.17829E-001	0.00000E+000	1.22100E+000	-8.92548E-005	11	...........	-327.56
	9974	4987.5	1.22430E+000	2.24242E-001	0.00000E+000	1.22600E+000	-9.03881E-005	11	...........	-327.56
	9979	4990	1.22932E+000	2.31047E-001	0.00000E+000	1.23100E+000	-8.71548E-005	11	...........	-327.56
	9984	4992.5	1.23433E+000	2.37882E-001	0.00000E+000	1.23600E+000	-8.68881E-005	11	...........	-327.56
	9989	4995	1.23931E+000	2.44885E-001	0.00000E+000	1.24100E+000	-8.52881E-005	11	...........	-327.56
	9994	4997.5	1.24422E+000	2.51879E-001	0.00000E+000	1.24600E+000	-8.52214E-005	11	...........	-327.56
	9999	5000	1.24922E+000	2.58853E-001	0.00000E+000	1.25100E+000	-8.87214E-005	11	...........	-327.56
	10004	5002.5	1.25425E+000	2.66413E-001	0.00000E+000	1.25600E+000	-9.10214E-005	11	...........	-327.56
	10009	5005	1.25954E+000	2.74818E-001	0.00000E+000	1.26100E+000	-8.93214E-005	12	...........	-327.56
	10014	5007.5	1.26455E+000	2.82622E-001	0.00000E+000	1.26600E+000	-9.17214E-005	12	...........	-327.56
	10019	5010	1.26944E+000	2.90569E-001	0.00000E+000	1.27100E+000	-9.09214E-005	12	...........	-327.56
	10024	5012.5	1.27445E+000	2.98955E-001	0.00000E+000	1.27600E+000	-9.04214E-005	12	...........	-327.56
	10029	5015	1.27946E+000	3.07284E-001	0.00000E+000	1.28100E+000	-8.77548E-005	12	...........	-327.56
	10034	5017.5	1.28449E+000	3.15718E-001	0.00000E+000	1.28600E+000	-8.96548E-005	12	...........	-327.56
	10039	5020	1.28949E+000	3.24373E-001	0.00000E+000	1.29100E+000	-8.95548E-005	12	...........	-327.56
	10044	5022.5	1.29436E+000	3.33264E-001	0.00000E+000	1.29600E+000	-9.12548E-005	12	...........	-327.56
	10049	5025	1.29940E+000	3.42630E-001	0.00000E+000	1.30100E+000	-9.10548E-005	12	...........	-327.56
	10054	5027.5	1.30441E+000	3.51689E-001	0.00000E+000	1.30600E+000	-9.31548E-005	12	...........	-327.56
	10059	5030	1.30945E+000	3.61177E-001	0.00000E+000	1.31100E+000	-8.78548E-005	12	...........	-327.56
	10064	5032.5	1.31444E+000	3.70940E-001	0.00000E+000	1.31600E+000	-9.25548E-005	12	...........	-327.56
	10069	5035	1.31933E+000	3.80471E-001	0.00000E+000	1.32100E+000	-9.50214E-005	12	...........	-327.56
	10074	5037.5	1.32435E+000	3.90310E-001	0.00000E+000	1.32600E+000	-8.66214E-005	12	...........	-327.56
	10079	5040	1.32941E+000	3.99894E-001	0.00000E+000	1.33100E+000	-9.50548E-005	12	...........	-327.56
	10084	5042.5	1.33434E+000	4.08945E-001	0.00000E+000	1.33600E+000	-9.01214E-005	12	...........	-327.56
	10089	5045	1.33935E+000	4.18759E-001	0.00000E+000	1.34100E+000	-9.18214E-005	12	...........	-327.56
	10094	5047.5	1.34425E+000	4.29294E-001	0.00000E+000	1.34600E+000	-8.76881E-005	12	...........	-327.56
	10099	5050	1.34926E+000	4.40167E-001	0.00000E+000	1.35100E+000	-8.95881E-005	12	...........	-327.56
	10104	5052.5	1.35427E+000	4.49992E-001	0.00000E+000	1.35600E+000	-8.61881E-005	12	...........	-327.56
	10109	5055	1.35928E+000	4.60893E-001	0.00000E+000	1.36100E+000	-9.20881E-005	12	...........	-327.56
	10114	5057.5	1.36428E+000	4.72429E-001	0.00000E+000	1.36600E+000	-9.16214E-005	12	...........	-327.56
	10119	5060	1.36928E+000	4.83128E-001	0.00000E+000	1.37100E+000	-8.99548E-005	12	...........	-327.56
	10124	5062.5	1.37428E+000	4.93774E-001	0.00000E+000	1.37600E+000	-9.27881E-005	12	...........	-327.56
	10129	5065	1.37918E+000	5.05454E-001	0.00000E+000	1.38100E+000	-8.79881E-005	12	...........	-327.56
	10134	5067.5	1.38422E+000	5.17247E-001	0.00000E+000	1.38600E+000	-9.50881E-005	12	...........	-327.56
	10139	5070	1.38924E+000	5.27890E-001	0.00000E+000	1.39100E+000	-9.02548E-005	12	...........	-327.56
	10144	5072.5	1.39422E+000	5.40250E-001	0.00000E+000	1.39600E+000	-9.00548E-005	12	...........	-327.56
	10149	5075	1.39914E+000	5.53294E-001	0.00000E+000	1.40100E+000	-8.86214E-005	12	...........	-327.56
	10154	5077.5	1.40415E+000	5.65595E-001	0.00000E+000	1.40600E+000	-8.99214E-005	12	...........	-327.56
	10159	5080	1.40915E+000	5.78633E-001	0.00000E+000	1.41100E+000	-8.84881E-005	12	...........	-327.56
	10164	5082.5	1.41419E+000	5.91380E-001	0.00000E+000	1.41600E+000	-8.72881E-005	12	...........	-327.56
	10169	5085	1.41917E+000	6.02958E-001	0.00000E+000	1.42100E+000	-9.27881E-005	12	...........	-327.56
	10174	5087.5	1.42404E+000	6.16400E-001	0.00000E+000	1.42600E+000	-9.03214E-005	12	...........	-327.56
	10179	5090	1.42910E+000	6.27900E-001	0.00000E+000	1.43100E+000	-9.07881E-005	12	...........	-327.56
	10184	5092.5	1.43409E+000	6.41341E-001	0.00000E+000	1.43600E+000	-9.03548E-005	12	...........	-327.56
	10189	5095	1.43912E+000	6.52865E-001	0.00000E+000	1.44100E+000	-8.98881E-005	12	...........	-327.56
	10194	5097.5	1.44407E+000	6.65370E-001	0.00000E+000	1.44600E+000	-8.93881E-005	12	...........	-327.56
	10199	5100	1.44901E+000	6.77364E-001	0.00000E+000	1.45100E+000	-8.76548E-005	12	...........	-327.56
	10204	5102.5	1.45401E+000	6.89823E-001	0.00000E+000	1.45600E+000	-8.83881E-005	12	...........	-327.56
	10209	5105	1.45907E+000	7.00161E-001	0.00000E+000	1.46100E+000	-8.95214E-005	12	...........	-327.56
	10214	5107.5	1.46404E+000	7.11058E-001	0.00000E+000	1.46600E+000	-9.02881E-005	12	...........	-327.56
	10219	5110	1.46904E+000	7.26757E-001	0.00000E+000	1.47100E+000	-8.71548E-005	12	...........	-327.56
	10224	5112.5	1.47395E+000	7.42268E-001	0.00000E+000	1.47600E+000	-9.03881E-005	12	...........	-327.56
	10229	5115	1.47898E+000	7.52112E-001	0.00000E+000	1.48100E+000	-9.05214E-005	12	...........	-327.56
	10234	5117.5	1.48395E+000	7.63868E-001	0.00000E+000	1.48600E+000	-8.79548E-005	12	...........	-327.56
	10239	5120	1.48898E+000	7.79116E-001	0.00000E+000	1.49100E+000	-9.23548E-005	12	...........	-327.56
	10244	5122.5	1.49397E+000	7.92312E-001	0.00000E+000	1.49600E+000	-8.79214E-005	12	...........	-327.56
	10249	5125	1.49889E+000	8.05025E-001	0.00000E+000	1.50100E+000	-8.80881E-005	12	...........	-327.56
	10254	5127.5	1.50393E+000	8.16486E-001	0.00000E+000	1.50600E+000	-8.70214E-005	12	...........	-327.56
	10259	5130	1.50887E+000	8.28365E-001	0.00000E+000	1.51100E+000	-9.02214E-005	12	...........	-327.56
	10264	5132.5	1.51394E+000	8.42664E-001	0.00000E+000	1.51600E+000	-8.82548E-005	12	...........	-327.56
	10269	5135	1.51892E+000	8.52897E-001	0.00000E+000	1.52100E+000	-9.07548E-005	12	...........	-327.56
	10274	5137.5	1.52383E+000	8.68568E-001	0.00000E+000	1.52600E+000	-9.31548E-005	12	...........	-327.56
	10279	5140	1.52883E+000	8.82493E-001	0.00000E+000	1.53100E+000	-9.20548E-005	12	...........	-327.56
	10284	5142.5	1.53385E+000	9.01113E-001	0.00000E+000	1.53600E+000	-9.16881E-005	12	...........	-327.56
	10289	5145	1.53880E+000	9.11036E-001	0.00000E+000	1.54100E+000	-9.06548E-005	12	...........	-327.56
	10294	5147.5	1.54384E+000	9.19206E-001	0.00000E+000	1.54600E+000	-9.09881E-005	12	...........	-327.56
	10299	5150	1.54880E+000	9.35000E-001	0.00000E+000	1.55100E+000	-8.57548E-005	12	...........	-327.56
	10304	5152.5	1.55373E+000	9.43957E-001	0.00000E+000	1.55600E+000	-9.05214E-005	12	...........	-327.56
	10309	5155	1.55874E+000	9.60630E-001	0.00000E+000	1.56100E+000	-8.78881E-005	12	...........	-327.56
	10314	5157.5	1.56378E+000	9.73464E-001	0.00000E+000	1.56600E+000	-9.04548E-005	12	...........	-327.56
	10319	5160	1.56876E+000	9.86753E-001	0.00000E+000	1.57100E+000	-9.06214E-005	12	...........	-327.56
	10324	5162.5	1.57376E+000	9.96428E-001	0.00000E+000	1.57600E+000	-9.10881E-005	12	...........	-327.56
	10329	5165	1.57868E+000	1.00465E+000	0.00000E+000	1.58100E+000	-9.06548E-005	12	...........	-327.56
	10334	5167.5	1.58370E+000	1.01789E+000	0.00000E+000	1.58600E+000	-9.18548E-005	12	...........	-327.56
	10339	5170	1.58873E+000	1.03087E+000	0.00000E+000	1.59100E+000	-9.14548E-005	12	...........	-327.56
	10344	5172.5	1.59372E+000	1.04431E+000	0.00000E+000	1.59600E+000	-8.92548E-005	12	...........	-327.56
	10349	5175	1.59869E+000	1.06241E+000	0.00000E+000	1.60100E+000	-9.26548E-005	12	...........	-327.56
	10354	5177.5	1.60362E+000	1.07729E+000	0.00000E+000	1.60600E+000	-9.11214E-005	12	...........	-327.56
	10359	5180	1.60863E+000	1.08363E+000	0.00000E+000	1.61100E+000	-8.89548E-005	12	...........	-327.56
	10364	5182.5	1.61363E+000	1.09390E+000	0.00000E+000	1.61600E+000	-9.06214E-005	12	...........	-327.56
	10369	5185	1.61866E+000	1.11137E+000	0.00000E+000	1.62100E+000	-9.01548E-005	12	...........	-327.56
	10374	5187.5	1.62364E+000	1.12379E+000	0.00000E+000	1.62600E+000	-9.29214E-005	12	...........	-327.56
	10379	5190	1.62862E+000	1.13526E+000	0.00000E+000	1.63100E+000	-8.95881E-005	12	...........	-327.56
	10384	5192.5	1.63356E+000	1.14257E+000	0.00000E+000	1.63600E+000	-9.08881E-005	12	...........	-327.56
	10389	5195	1.63857E+000	1.15545E+000	0.00000E+000	1.64100E+000	-8.87881E-005	12	...........	-327.56
	10394	5197.5	1.64359E+000	1.17064E+000	0.00000E+000	1.64600E+000	-9.44548E-005	12	...........	-327.56
	10399	5200	1.64859E+000	1.18656E+000	0.00000E+000	1.65100E+000	-8.84548E-005	12	...........	-327.56
	10404	5202.5	1.65350E+000	1.19678E+000	0.00000E+000	1.65600E+000	-9.08881E-005	12	...........	-327.56
	10409	5205	1.65851E+000	1.20703E+000	0.00000E+000	1.66100E+000	-9.01881E-005	12	...........	-327.56
	10414	5207.5	1.66352E+000	1.22365E+000	0.00000E+000	1.66600E+000	-8.75881E-005	12	...........	-327.56
	10419	5210	1.66855E+000	1.23536E+000	0.00000E+000	1.67100E+000	-9.04881E-005	12	...........	-327.56
	10424	5212.5	1.67353E+000	1.25075E+000	0.00000E+000	1.67600E+000	-8.73548E-005	12	...........	-327.56
	10429	5215	1.67839E+000	1.26053E+000	0.00000E+000	1.68100E+000	-9.15881E-005	12	...........	-327.56
	10434	5217.5	1.68346E+000	1.27335E+000	0.00000E+000	1.68600E+000	-8.64881E-005	12	...........	-327.56
	10439	5220	1.68846E+000	1.29349E+000	0.00000E+000	1.69100E+000	-9.14548E-005	12	...........	-327.56
	10444	5222.5	1.69349E+000	1.30675E+000	0.00000E+000	1.69600E+000	-8.62881E-005	12	...........	-327.56
	10448	5224.5	1.69751E+000	1.31438E+000	0.00000E+000	1.70000E+000	-8.94214E-005	12	...........	-327.56