File: testing/data/241007_01_MCL21_cswWE1_CV2_CO2_750C.DTA
EXPLAIN
TAG	CV
TITLE	LABEL	Cyclic Voltammetry	Test &Identifier
DATE	LABEL	10/7/2024	Date
TIME	LABEL	15:52:45	Time
NOTES	NOTES	2	&Notes...
	WE: biltema wire 10mm x 1.5mm
	CE: biltema plate 2x2cm
PSTAT	PSTAT	REF3000-48128	Potentiostat
VINIT	POTEN	0.00000E+000	T	Initial &E (V)
VLIMIT1	POTEN	1.30000E+000	F	Scan Limit &1 (V)
VLIMIT2	POTEN	-1.00000E+000	F	Scan Limit &2 (V)
VFINAL	POTEN	1.30000E+000	F	Final &E (V)
SCANRATE	QUANT	2.00000E+000	&Scan Rate (mV/s)
STEPSIZE	QUANT	1.00000E+000	St&ep Size (mV)
CYCLES	IQUANT	2	C&ycles (#)
IMODE	SELECTOR	0	I/E Range &Mode
IRANGE	QUANT	0.00000E+000	&Max Current (mA)
AREA	QUANT	4.89000E-001	Electrode &Area (cm^2)
ELECTRODETYPE	SELECTOR	0	Electrode Type
STRIPPING	TOGGLE	F	Used for Stripping
CONDIT	TWOPARAM	F	1.50000E+001	0.00000E+000	Conditionin&g	Time(s)	E(V)
DELAY	TWOPARAM	T	3.00000E+001	1.00000E+000	Init. De&lay	Time(s)	Stab.(mV/s)
EQDELAY	QUANT	0.00000E+000	Equil. &Time (s)
IRCOMP	SELECTOR	0	IRCom&p
PFCOR	QUANT	5.00000E+001	PF Corr. (ohm)
SAMPLINGMODE	SELECTOR	1	Sampling &Mode
OCVCURVE	TABLE	11
	Pt	T	Vf	Vm	Ach	Over	Temp
	#	s	V vs. Ref.	V	V	bits	deg C
	0	0.25	1.10862E-001	1.10862E-001	-8.88481E-004	...........	-327.56
	1	0.5	1.10856E-001	1.10565E-001	-8.93547E-004	...........	-327.56
	2	0.75	1.10821E-001	1.10244E-001	-8.88148E-004	...........	-327.56
	3	1	1.10716E-001	1.09892E-001	-8.93014E-004	...........	-327.56
	4	1.25	1.10520E-001	1.09478E-001	-8.88547E-004	...........	-327.56
	5	1.5	1.10239E-001	1.09117E-001	-8.92947E-004	...........	-327.56
	6	1.75	1.09899E-001	1.08698E-001	-8.86947E-004	...........	-327.56
	7	2	1.09527E-001	1.08424E-001	-8.95147E-004	...........	-327.56
	8	2.25	1.09149E-001	1.08084E-001	-8.94281E-004	...........	-327.56
	9	2.5	1.08785E-001	1.07735E-001	-8.91081E-004	...........	-327.56
	10	2.75	1.08437E-001	1.07406E-001	-8.89347E-004	...........	-327.56
EOC	QUANT	0.1084374	Open Circuit (V)
PSTATMODEL	IQUANT	5	Pstat Model
PSTATSECTION	LABEL	REF3000-48128	Pstat Section
PSTATSERIALNO	LABEL	48128	Pstat Serial Number
CTRLMODE	IQUANT	1	Control Mode
ELECTROMETER	IQUANT	0	RE=0 or CS=1
IESTAB	IQUANT	2	I/E Stability
CASPEED	IQUANT	4	Control Amp Speed
CONVENTION	IQUANT	1	Current Convention
ICHRANGE	IQUANT	2	Ich Range
ICHRANGEMODE	TOGGLE	F	Ich Auto Range
ICHOFFSETENABLE	TOGGLE	F	Ich Offset Enable
ICHOFFSET	QUANT	0	Ich Offset (V)
ICHFILTER	IQUANT	3	Ich Filter
VCHRANGE	IQUANT	2	Vch Range
VCHRANGEMODE	TOGGLE	F	Vch Auto Range
VCHOFFSETENABLE	TOGGLE	F	Vch Offset Enable
VCHOFFSET	QUANT	0	Vch Offset (V)
VCHFILTER	IQUANT	3	Vch Filter
ACHRANGE	IQUANT	2	Ach Range
ACHOFFSETENABLE	TOGGLE	F	Ach Offset Enable
ACHOFFSET	QUANT	0	Ach Offset (V)
ACHFILTER	IQUANT	1	Ach Filter
IERANGELOWERLIMIT	IQUANT	2	I/E Range Lower Limit
IERANGEMODE	TOGGLE	T	I/E AutoRange
IERANGE	IQUANT	2	I/E Range
POSFEEDENABLE	TOGGLE	F	Positive Feedback IR Comp
POSFEEDRESISTANCE	QUANT	0	Positive Feedback Resistance (ohm)
ACHSELECT	IQUANT	4	Ach Select
SENSECABLEID	IQUANT	14	Sense Cable ID
PWRCABLEID	IQUANT	7	Power Cable ID
DCCALDATE	LABEL	9/17/2024	DC Calibration Date
ACCALDATE	LABEL	8/16/2024	AC Calibration Date
THERMOSELECT	IQUANT	1	Thermo Select
FRAMEWORKVERSION	LABEL	7.10.3	Framework Version
INSTRUMENTVERSION	LABEL	4.91	Instrument Version
COMMVERSION	LABEL	5.10	Communications Version
CPUPLDVERSION	LABEL	6.00	CPU PLD Version
CTRLPLDVERSION	LABEL	3.21	CTRL PLD Version
PSTATPLDVERSION	LABEL	0.00	PSTAT PLD Version
COMPLIANCEVOLTAGE	IQUANT	0	Compliance Voltage
CURVE1	TABLE
	Pt	T	Vf	Im	Vu	Sig	Ach	IERange	Over	Temp
	#	s	V vs. Ref.	A	V	V	V	#	bits	deg C
	0	0.5	1.07185E-001	3.27499E-006	0.00000E+000	1.08450E-001	-5.36141E-005	6	....ih..i..	-327.56
	8	4.5	1.16067E-001	1.35954E-003	0.00000E+000	1.16450E-001	-5.21808E-005	9	...........	-327.56
	16	8.5	1.23995E-001	2.32644E-003	0.00000E+000	1.24450E-001	-5.35808E-005	9	...........	-327.56
	24	12.5	1.32279E-001	3.27423E-003	0.00000E+000	1.32450E-001	-5.21808E-005	10	...........	-327.56
	32	16.5	1.40252E-001	4.14967E-003	0.00000E+000	1.40450E-001	-5.17474E-005	10	...........	-327.56
	40	20.5	1.48200E-001	5.01941E-003	0.00000E+000	1.48450E-001	-5.11141E-005	10	...........	-327.56
	48	24.5	1.56225E-001	5.88451E-003	0.00000E+000	1.56450E-001	-6.51808E-005	10	...........	-327.56
	56	28.5	1.64205E-001	6.72303E-003	0.00000E+000	1.64450E-001	-6.38808E-005	10	...........	-327.56
	64	32.5	1.72138E-001	7.62783E-003	0.00000E+000	1.72450E-001	-6.22474E-005	10	...........	-327.56
	72	36.5	1.80153E-001	8.53040E-003	0.00000E+000	1.80450E-001	-6.49808E-005	10	...........	-327.56
	80	40.5	1.88182E-001	9.46420E-003	0.00000E+000	1.88450E-001	-6.71141E-005	10	...........	-327.56
	88	44.5	1.96069E-001	1.04274E-002	0.00000E+000	1.96450E-001	-6.35141E-005	10	...........	-327.56
	96	48.5	2.04086E-001	1.14527E-002	0.00000E+000	2.04450E-001	-6.48474E-005	10	...........	-327.56
	104	52.5	2.12096E-001	1.25150E-002	0.00000E+000	2.12450E-001	-6.66474E-005	10	...........	-327.56
	112	56.5	2.19991E-001	1.35977E-002	0.00000E+000	2.20450E-001	-6.33141E-005	10	...........	-327.56
	120	60.5	2.28018E-001	1.47421E-002	0.00000E+000	2.28450E-001	-6.49141E-005	10	...........	-327.56
	128	64.5	2.36045E-001	1.59073E-002	0.00000E+000	2.36450E-001	-6.44808E-005	10	...........	-327.56
	136	68.5	2.43911E-001	1.71231E-002	0.00000E+000	2.44450E-001	-6.50141E-005	10	...........	-327.56
	144	72.5	2.51957E-001	1.84227E-002	0.00000E+000	2.52450E-001	-6.01808E-005	10	...........	-327.56
	152	76.5	2.59972E-001	1.96908E-002	0.00000E+000	2.60450E-001	-6.05474E-005	10	...........	-327.56
	160	80.5	2.67930E-001	2.10449E-002	0.00000E+000	2.68450E-001	-5.97141E-005	10	...........	-327.56
	168	84.5	2.75872E-001	2.24492E-002	0.00000E+000	2.76450E-001	-6.25141E-005	10	...........	-327.56
	176	88.5	2.83908E-001	2.39260E-002	0.00000E+000	2.84450E-001	-6.08141E-005	10	...........	-327.56
	184	92.5	2.91890E-001	2.54396E-002	0.00000E+000	2.92450E-001	-5.96474E-005	10	...........	-327.56
	192	96.5	3.00084E-001	2.71946E-002	0.00000E+000	3.00450E-001	-6.53141E-005	11	...........	-327.56
	200	100.5	3.08066E-001	2.88527E-002	0.00000E+000	3.08450E-001	-6.40141E-005	11	...........	-327.56
	208	104.5	3.16103E-001	3.06392E-002	0.00000E+000	3.16450E-001	-6.65808E-005	11	...........	-327.56
	216	108.5	3.24026E-001	3.25841E-002	0.00000E+000	3.24450E-001	-6.19474E-005	11	...........	-327.56
	224	112.5	3.32039E-001	3.45209E-002	0.00000E+000	3.32450E-001	-6.91474E-005	11	...........	-327.56
	232	116.5	3.40071E-001	3.66408E-002	0.00000E+000	3.40450E-001	-6.80474E-005	11	...........	-327.56
	240	120.5	3.47985E-001	3.88487E-002	0.00000E+000	3.48450E-001	-6.61808E-005	11	...........	-327.56
	248	124.5	3.56014E-001	4.12566E-002	0.00000E+000	3.56450E-001	-6.64474E-005	11	...........	-327.56
	256	128.5	3.64048E-001	4.36971E-002	0.00000E+000	3.64450E-001	-6.64141E-005	11	...........	-327.56
	264	132.5	3.71934E-001	4.62544E-002	0.00000E+000	3.72450E-001	-6.57808E-005	11	...........	-327.56
	272	136.5	3.79988E-001	4.91084E-002	0.00000E+000	3.80450E-001	-6.46808E-005	11	...........	-327.56
	280	140.5	3.88013E-001	5.21398E-002	0.00000E+000	3.88450E-001	-6.61474E-005	11	...........	-327.56
	288	144.5	3.95995E-001	5.50423E-002	0.00000E+000	3.96450E-001	-6.81808E-005	11	...........	-327.56
	296	148.5	4.03944E-001	5.80544E-002	0.00000E+000	4.04450E-001	-6.25808E-005	11	...........	-327.56
	304	152.5	4.11991E-001	6.07580E-002	0.00000E+000	4.12450E-001	-6.62141E-005	11	...........	-327.56
	312	156.5	4.19990E-001	6.25539E-002	0.00000E+000	4.20450E-001	-6.33808E-005	11	...........	-327.56
	320	160.5	4.27937E-001	6.33008E-002	0.00000E+000	4.28450E-001	-6.42808E-005	11	...........	-327.56
	328	164.5	4.35976E-001	5.55578E-002	0.00000E+000	4.36450E-001	-6.33808E-005	11	...........	-327.56
	336	168.5	4.44024E-001	4.44913E-002	0.00000E+000	4.44450E-001	-6.53141E-005	11	...........	-327.56
	344	172.5	4.51961E-001	3.56761E-002	0.00000E+000	4.52450E-001	-6.25141E-005	11	...........	-327.56
	352	176.5	4.59993E-001	3.00402E-002	0.00000E+000	4.60450E-001	-6.22808E-005	11	...........	-327.56
	360	180.5	4.68023E-001	2.68810E-002	0.00000E+000	4.68450E-001	-6.23141E-005	11	...........	-327.56
	368	184.5	4.75954E-001	2.52812E-002	0.00000E+000	4.76450E-001	-6.54808E-005	11	...........	-327.56
	376	188.5	4.83977E-001	2.47055E-002	0.00000E+000	4.84450E-001	-6.26474E-005	11	...........	-327.56
	384	192.5	4.92013E-001	2.48041E-002	0.00000E+000	4.92450E-001	-6.35141E-005	11	...........	-327.56
	392	196.5	4.99897E-001	2.52653E-002	0.00000E+000	5.00450E-001	-6.59808E-005	11	...........	-327.56
	400	200.5	5.07966E-001	2.58291E-002	0.00000E+000	5.08450E-001	-6.22474E-005	11	...........	-327.56
	408	204.5	5.15957E-001	2.64687E-002	0.00000E+000	5.16450E-001	-6.21474E-005	11	...........	-327.56
	416	208.5	5.23936E-001	2.72334E-002	0.00000E+000	5.24450E-001	-6.35808E-005	11	...........	-327.56
	424	212.5	5.31893E-001	2.78764E-002	0.00000E+000	5.32450E-001	-6.07808E-005	11	...........	-327.56
	432	216.5	5.39945E-001	2.84533E-002	0.00000E+000	5.40450E-001	-5.92141E-005	11	...........	-327.56
	440	220.5	5.47936E-001	2.89416E-002	0.00000E+000	5.48450E-001	-6.44141E-005	11	...........	-327.56
	448	224.5	5.55870E-001	2.92304E-002	0.00000E+000	5.56450E-001	-6.42474E-005	11	...........	-327.56
	456	228.5	5.63893E-001	2.95239E-002	0.00000E+000	5.64450E-001	-6.17474E-005	11	...........	-327.56
	464	232.5	5.71925E-001	2.96238E-002	0.00000E+000	5.72450E-001	-6.23808E-005	11	...........	-327.56
	472	236.5	5.79844E-001	2.96451E-002	0.00000E+000	5.80450E-001	-6.42474E-005	11	...........	-327.56
	480	240.5	5.87865E-001	2.96726E-002	0.00000E+000	5.88450E-001	-6.46141E-005	11	...........	-327.56
	488	244.5	5.95910E-001	2.96035E-002	0.00000E+000	5.96450E-001	-6.16808E-005	11	...........	-327.56
	496	248.5	6.03824E-001	2.95736E-002	0.00000E+000	6.04450E-001	-6.52474E-005	11	...........	-327.56
	504	252.5	6.11863E-001	2.94404E-002	0.00000E+000	6.12450E-001	-6.24808E-005	11	...........	-327.56
	512	256.5	6.19884E-001	2.92572E-002	0.00000E+000	6.20450E-001	-6.37141E-005	11	...........	-327.56
	520	260.5	6.27784E-001	2.91355E-002	0.00000E+000	6.28450E-001	-6.33474E-005	11	...........	-327.56
	528	264.5	6.35808E-001	2.90021E-002	0.00000E+000	6.36450E-001	-6.35808E-005	11	...........	-327.56
	536	268.5	6.43870E-001	2.88401E-002	0.00000E+000	6.44450E-001	-6.09141E-005	11	...........	-327.56
	544	272.5	6.51864E-001	2.87072E-002	0.00000E+000	6.52450E-001	-6.36474E-005	11	...........	-327.56
	552	276.5	6.59788E-001	2.85593E-002	0.00000E+000	6.60450E-001	-6.22808E-005	11	...........	-327.56
	560	280.5	6.67840E-001	2.84349E-002	0.00000E+000	6.68450E-001	-6.42474E-005	11	...........	-327.56
	568	284.5	6.75856E-001	2.82523E-002	0.00000E+000	6.76450E-001	-5.94141E-005	11	...........	-327.56
	576	288.5	6.83768E-001	2.81135E-002	0.00000E+000	6.84450E-001	-6.39141E-005	11	...........	-327.56
	584	292.5	6.91797E-001	2.79797E-002	0.00000E+000	6.92450E-001	-6.22141E-005	11	...........	-327.56
	592	296.5	6.99844E-001	2.78698E-002	0.00000E+000	7.00450E-001	-6.40141E-005	11	...........	-327.56
	600	300.5	7.07748E-001	2.77682E-002	0.00000E+000	7.08450E-001	-6.17808E-005	11	...........	-327.56
	608	304.5	7.15779E-001	2.76987E-002	0.00000E+000	7.16450E-001	-6.54808E-005	11	...........	-327.56
	616	308.5	7.23779E-001	2.76471E-002	0.00000E+000	7.24450E-001	-6.34141E-005	11	...........	-327.56
	624	312.5	7.31667E-001	2.75507E-002	0.00000E+000	7.32450E-001	-6.29474E-005	11	...........	-327.56
	632	316.5	7.39711E-001	2.75553E-002	0.00000E+000	7.40450E-001	-6.39474E-005	11	...........	-327.56
	640	320.5	7.47768E-001	2.75125E-002	0.00000E+000	7.48450E-001	-6.22808E-005	11	...........	-327.56
	648	324.5	7.55660E-001	2.75017E-002	0.00000E+000	7.56450E-001	-6.20141E-005	11	...........	-327.56
	656	328.5	7.63690E-001	2.74914E-002	0.00000E+000	7.64450E-001	-6.30474E-005	11	...........	-327.56
	664	332.5	7.71736E-001	2.75576E-002	0.00000E+000	7.72450E-001	-6.44474E-005	11	...........	-327.56
	672	336.5	7.79743E-001	2.75638E-002	0.00000E+000	7.80450E-001	-6.23808E-005	11	...........	-327.56
	680	340.5	7.87659E-001	2.75788E-002	0.00000E+000	7.88450E-001	-6.18808E-005	11	...........	-327.56
	688	344.5	7.95711E-001	2.76731E-002	0.00000E+000	7.96450E-001	-6.40141E-005	11	...........	-327.56
	696	348.5	8.03735E-001	2.76949E-002	0.00000E+000	8.04450E-001	-6.25808E-005	11	...........	-327.56
	704	352.5	8.11641E-001	2.77453E-002	0.00000E+000	8.12450E-001	-6.22474E-005	11	...........	-327.56
	712	356.5	8.19638E-001	2.78279E-002	0.00000E+000	8.20450E-001	-6.38808E-005	11	...........	-327.56
	720	360.5	8.27676E-001	2.78532E-002	0.00000E+000	8.28450E-001	-6.08474E-005	11	...........	-327.56
	728	364.5	8.35575E-001	2.78737E-002	0.00000E+000	8.36450E-001	-5.77474E-005	11	...........	-327.56
	736	368.5	8.43611E-001	2.79096E-002	0.00000E+000	8.44450E-001	-6.14141E-005	11	...........	-327.56
	744	372.5	8.51660E-001	2.79809E-002	0.00000E+000	8.52450E-001	-6.23808E-005	11	...........	-327.56
	752	376.5	8.59562E-001	2.80104E-002	0.00000E+000	8.60450E-001	-6.43141E-005	11	...........	-327.56
	760	380.5	8.67591E-001	2.80490E-002	0.00000E+000	8.68450E-001	-5.97808E-005	11	...........	-327.56
	768	384.5	8.75635E-001	2.80691E-002	0.00000E+000	8.76450E-001	-6.13808E-005	11	...........	-327.56
	776	388.5	8.83530E-001	2.80892E-002	0.00000E+000	8.84450E-001	-6.10141E-005	11	...........	-327.56
	784	392.5	8.91570E-001	2.81346E-002	0.00000E+000	8.92450E-001	-6.25474E-005	11	...........	-327.56
	792	396.5	8.99612E-001	2.81057E-002	0.00000E+000	9.00450E-001	-6.10141E-005	11	...........	-327.56
	800	400.5	9.07636E-001	2.81176E-002	0.00000E+000	9.08450E-001	-6.26474E-005	11	...........	-327.56
	808	404.5	9.15549E-001	2.81322E-002	0.00000E+000	9.16450E-001	-5.93808E-005	11	...........	-327.56
	816	408.5	9.23558E-001	2.81522E-002	0.00000E+000	9.24450E-001	-6.15141E-005	11	...........	-327.56
	824	412.5	9.31572E-001	2.81533E-002	0.00000E+000	9.32450E-001	-5.98808E-005	11	...........	-327.56
	832	416.5	9.39494E-001	2.81569E-002	0.00000E+000	9.40450E-001	-6.52141E-005	11	...........	-327.56
	840	420.5	9.47523E-001	2.81573E-002	0.00000E+000	9.48450E-001	-6.03808E-005	11	...........	-327.56
	848	424.5	9.55565E-001	2.82006E-002	0.00000E+000	9.56450E-001	-6.13474E-005	11	...........	-327.56
	856	428.5	9.63468E-001	2.81993E-002	0.00000E+000	9.64450E-001	-6.13141E-005	11	...........	-327.56
	864	432.5	9.71496E-001	2.82712E-002	0.00000E+000	9.72450E-001	-6.48141E-005	11	...........	-327.56
	872	436.5	9.79532E-001	2.83243E-002	0.00000E+000	9.80450E-001	-6.36474E-005	11	...........	-327.56
	880	440.5	9.87428E-001	2.84613E-002	0.00000E+000	9.88450E-001	-6.39141E-005	11	...........	-327.56
	888	444.5	9.95470E-001	2.86426E-002	0.00000E+000	9.96450E-001	-6.46474E-005	11	...........	-327.56
	896	448.5	1.00351E+000	2.88617E-002	0.00000E+000	1.00445E+000	-6.18808E-005	11	...........	-327.56
	904	452.5	1.01141E+000	2.91805E-002	0.00000E+000	1.01245E+000	-6.27141E-005	11	...........	-327.56
	912	456.5	1.01944E+000	2.96409E-002	0.00000E+000	1.02045E+000	-6.43474E-005	11	...........	-327.56
	920	460.5	1.02748E+000	3.01368E-002	0.00000E+000	1.02845E+000	-6.22808E-005	11	...........	-327.56
	928	464.5	1.03548E+000	3.06580E-002	0.00000E+000	1.03645E+000	-6.07141E-005	11	...........	-327.56
	936	468.5	1.04339E+000	3.12034E-002	0.00000E+000	1.04445E+000	-6.30808E-005	11	...........	-327.56
	944	472.5	1.05144E+000	3.18486E-002	0.00000E+000	1.05245E+000	-6.23141E-005	11	...........	-327.56
	952	476.5	1.05947E+000	3.24958E-002	0.00000E+000	1.06045E+000	-6.29141E-005	11	...........	-327.56
	960	480.5	1.06738E+000	3.32040E-002	0.00000E+000	1.06845E+000	-6.32141E-005	11	...........	-327.56
	968	484.5	1.07540E+000	3.39914E-002	0.00000E+000	1.07645E+000	-6.43141E-005	11	...........	-327.56
	976	488.5	1.08345E+000	3.48284E-002	0.00000E+000	1.08445E+000	-6.24141E-005	11	...........	-327.56
	984	492.5	1.09136E+000	3.57038E-002	0.00000E+000	1.09245E+000	-6.33474E-005	11	...........	-327.56
	992	496.5	1.09938E+000	3.66580E-002	0.00000E+000	1.10045E+000	-6.43474E-005	11	...........	-327.56
	1000	500.5	1.10743E+000	3.76164E-002	0.00000E+000	1.10845E+000	-6.05808E-005	11	...........	-327.56
	1008	504.5	1.11534E+000	3.86779E-002	0.00000E+000	1.11645E+000	-6.51141E-005	11	...........	-327.56
	1016	508.5	1.12336E+000	3.97625E-002	0.00000E+000	1.12445E+000	-6.30808E-005	11	...........	-327.56
	1024	512.5	1.13135E+000	4.08526E-002	0.00000E+000	1.13245E+000	-6.26141E-005	11	...........	-327.56
	1032	516.5	1.13931E+000	4.20368E-002	0.00000E+000	1.14045E+000	-6.33141E-005	11	...........	-327.56
	1040	520.5	1.14729E+000	4.33578E-002	0.00000E+000	1.14845E+000	-6.27474E-005	11	...........	-327.56
	1048	524.5	1.15534E+000	4.47999E-002	0.00000E+000	1.15645E+000	-6.34141E-005	11	...........	-327.56
	1056	528.5	1.16335E+000	4.63981E-002	0.00000E+000	1.16445E+000	-6.38141E-005	11	...........	-327.56
	1064	532.5	1.17126E+000	4.80359E-002	0.00000E+000	1.17245E+000	-5.78474E-005	11	...........	-327.56
	1072	536.5	1.17929E+000	4.96463E-002	0.00000E+000	1.18045E+000	-6.15808E-005	11	...........	-327.56
	1080	540.5	1.18731E+000	5.12138E-002	0.00000E+000	1.18845E+000	-6.24474E-005	11	...........	-327.56
	1088	544.5	1.19522E+000	5.26979E-002	0.00000E+000	1.19645E+000	-6.41141E-005	11	...........	-327.56
	1096	548.5	1.20325E+000	5.41924E-002	0.00000E+000	1.20445E+000	-6.16141E-005	11	...........	-327.56
	1104	552.5	1.21129E+000	5.53576E-002	0.00000E+000	1.21245E+000	-6.25808E-005	11	...........	-327.56
	1112	556.5	1.21920E+000	5.68771E-002	0.00000E+000	1.22045E+000	-6.45808E-005	11	...........	-327.56
	1120	560.5	1.22723E+000	5.83687E-002	0.00000E+000	1.22845E+000	-6.30141E-005	11	...........	-327.56
	1128	564.5	1.23527E+000	6.01000E-002	0.00000E+000	1.23645E+000	-6.23141E-005	11	...........	-327.56
	1136	568.5	1.24318E+000	6.18180E-002	0.00000E+000	1.24445E+000	-6.19141E-005	11	...........	-327.56
	1144	572.5	1.25122E+000	6.37499E-002	0.00000E+000	1.25245E+000	-6.34474E-005	11	...........	-327.56
	1152	576.5	1.25926E+000	6.55332E-002	0.00000E+000	1.26045E+000	-6.63141E-005	11	...........	-327.56
	1160	580.5	1.26724E+000	6.76295E-002	0.00000E+000	1.26845E+000	-6.18141E-005	11	...........	-327.56
	1168	584.5	1.27519E+000	7.02592E-002	0.00000E+000	1.27645E+000	-6.18474E-005	11	...........	-327.56
	1176	588.5	1.28321E+000	7.34749E-002	0.00000E+000	1.28445E+000	-5.88808E-005	11	...........	-327.56
	1184	592.5	1.29122E+000	7.68367E-002	0.00000E+000	1.29245E+000	-6.42808E-005	11	...........	-327.56
	1192	596.5	1.29916E+000	8.08101E-002	0.00000E+000	1.30045E+000	-6.28141E-005	11	...........	-327.56
	1200	600.5	1.29122E+000	7.45224E-002	0.00000E+000	1.29245E+000	-5.94808E-005	11	...........	-327.56
	1208	604.5	1.28321E+000	6.87302E-002	0.00000E+000	1.28445E+000	-5.88474E-005	11	...........	-327.56
	1216	608.5	1.27520E+000	6.32238E-002	0.00000E+000	1.27645E+000	-6.11808E-005	11	...........	-327.56
	1224	612.5	1.26725E+000	5.83465E-002	0.00000E+000	1.26845E+000	-6.11141E-005	11	...........	-327.56
	1232	616.5	1.25928E+000	5.32685E-002	0.00000E+000	1.26045E+000	-6.07808E-005	11	...........	-327.56
	1240	620.5	1.25123E+000	4.88930E-002	0.00000E+000	1.25245E+000	-6.39808E-005	11	...........	-327.56
	1248	624.5	1.24320E+000	4.48453E-002	0.00000E+000	1.24445E+000	-6.28141E-005	11	...........	-327.56
	1256	628.5	1.23531E+000	4.11356E-002	0.00000E+000	1.23645E+000	-6.10141E-005	11	...........	-327.56
	1264	632.5	1.22728E+000	3.78603E-002	0.00000E+000	1.22845E+000	-5.98474E-005	11	...........	-327.56
	1272	636.5	1.21924E+000	3.47472E-002	0.00000E+000	1.22045E+000	-5.99808E-005	11	...........	-327.56
	1280	640.5	1.21134E+000	3.20501E-002	0.00000E+000	1.21245E+000	-6.39474E-005	11	...........	-327.56
	1288	644.5	1.20330E+000	2.99398E-002	0.00000E+000	1.20445E+000	-6.26141E-005	11	...........	-327.56
	1296	648.5	1.19526E+000	3.20075E-002	0.00000E+000	1.19645E+000	-6.41141E-005	11	...........	-327.56
	1304	652.5	1.18735E+000	2.82426E-002	0.00000E+000	1.18845E+000	-6.70141E-005	11	...........	-327.56
	1312	656.5	1.17933E+000	2.59770E-002	0.00000E+000	1.18045E+000	-6.32808E-005	11	...........	-327.56
	1320	660.5	1.17110E+000	2.41551E-002	0.00000E+000	1.17245E+000	-5.98808E-005	10	...........	-327.56
	1328	664.5	1.16314E+000	2.26878E-002	0.00000E+000	1.16445E+000	-6.00474E-005	10	...........	-327.56
	1336	668.5	1.15515E+000	2.12304E-002	0.00000E+000	1.15645E+000	-6.19808E-005	10	...........	-327.56
	1344	672.5	1.14715E+000	2.00199E-002	0.00000E+000	1.14845E+000	-6.28808E-005	10	...........	-327.56
	1352	676.5	1.13917E+000	1.89878E-002	0.00000E+000	1.14045E+000	-5.97474E-005	10	...........	-327.56
	1360	680.5	1.13119E+000	1.80761E-002	0.00000E+000	1.13245E+000	-6.25808E-005	10	...........	-327.56
	1368	684.5	1.12321E+000	1.73256E-002	0.00000E+000	1.12445E+000	-6.32474E-005	10	...........	-327.56
	1376	688.5	1.11517E+000	1.91160E-002	0.00000E+000	1.11645E+000	-6.05808E-005	10	...........	-327.56
	1384	692.5	1.10725E+000	1.77985E-002	0.00000E+000	1.10845E+000	-6.13808E-005	10	...........	-327.56
	1392	696.5	1.09923E+000	1.70219E-002	0.00000E+000	1.10045E+000	-6.11474E-005	10	...........	-327.56
	1400	700.5	1.09120E+000	1.64754E-002	0.00000E+000	1.09245E+000	-6.03141E-005	10	...........	-327.56
	1408	704.5	1.08330E+000	1.61292E-002	0.00000E+000	1.08445E+000	-6.22474E-005	10	...........	-327.56
	1416	708.5	1.07526E+000	1.59190E-002	0.00000E+000	1.07645E+000	-6.21141E-005	10	...........	-327.56
	1424	712.5	1.06724E+000	1.58022E-002	0.00000E+000	1.06845E+000	-5.89474E-005	10	...........	-327.56
	1432	716.5	1.05932E+000	1.57606E-002	0.00000E+000	1.06045E+000	-6.18474E-005	10	...........	-327.56
	1440	720.5	1.05130E+000	1.57798E-002	0.00000E+000	1.05245E+000	-5.97808E-005	10	...........	-327.56
	1448	724.5	1.04325E+000	1.58314E-002	0.00000E+000	1.04445E+000	-5.85141E-005	10	...........	-327.56
	1456	728.5	1.03533E+000	1.59038E-002	0.00000E+000	1.03645E+000	-5.95808E-005	10	...........	-327.56
	1464	732.5	1.02731E+000	1.60130E-002	0.00000E+000	1.02845E+000	-6.22808E-005	10	...........	-327.56
	1472	736.5	1.01929E+000	1.61584E-002	0.00000E+000	1.02045E+000	-5.97474E-005	10	...........	-327.56
	1480	740.5	1.01130E+000	1.63259E-002	0.00000E+000	1.01245E+000	-5.73474E-005	10	...........	-327.56
	1488	744.5	1.00335E+000	1.65140E-002	0.00000E+000	1.00445E+000	-6.27141E-005	10	...........	-327.56
	1496	748.5	9.95296E-001	1.67087E-002	0.00000E+000	9.96450E-001	-6.03141E-005	10	...........	-327.56
	1504	752.5	9.87252E-001	1.69183E-002	0.00000E+000	9.88450E-001	-6.08141E-005	10	...........	-327.56
	1512	756.5	9.79355E-001	1.71275E-002	0.00000E+000	9.80450E-001	-5.74808E-005	10	...........	-327.56
	1520	760.5	9.71323E-001	1.73301E-002	0.00000E+000	9.72450E-001	-6.15141E-005	10	...........	-327.56
	1528	764.5	9.63300E-001	1.75487E-002	0.00000E+000	9.64450E-001	-6.09141E-005	10	...........	-327.56
	1536	768.5	9.55383E-001	1.77376E-002	0.00000E+000	9.56450E-001	-5.88474E-005	10	...........	-327.56
	1544	772.5	9.47338E-001	1.79314E-002	0.00000E+000	9.48450E-001	-5.97141E-005	10	...........	-327.56
	1552	776.5	9.39316E-001	1.80997E-002	0.00000E+000	9.40450E-001	-6.25141E-005	10	...........	-327.56
	1560	780.5	9.31394E-001	1.82735E-002	0.00000E+000	9.32450E-001	-5.87141E-005	10	...........	-327.56
	1568	784.5	9.23354E-001	1.84071E-002	0.00000E+000	9.24450E-001	-5.56141E-005	10	...........	-327.56
	1576	788.5	9.15358E-001	1.85323E-002	0.00000E+000	9.16450E-001	-5.89141E-005	10	...........	-327.56
	1584	792.5	9.07446E-001	1.86310E-002	0.00000E+000	9.08450E-001	-5.87141E-005	10	...........	-327.56
	1592	796.5	8.99420E-001	1.86819E-002	0.00000E+000	9.00450E-001	-6.01808E-005	10	...........	-327.56
	1600	800.5	8.91381E-001	1.87202E-002	0.00000E+000	8.92450E-001	-6.27141E-005	10	...........	-327.56
	1608	804.5	8.83367E-001	1.87218E-002	0.00000E+000	8.84450E-001	-5.80808E-005	10	...........	-327.56
	1616	808.5	8.75442E-001	1.86971E-002	0.00000E+000	8.76450E-001	-6.24808E-005	10	...........	-327.56
	1624	812.5	8.67403E-001	1.87087E-002	0.00000E+000	8.68450E-001	-5.81474E-005	10	...........	-327.56
	1632	816.5	8.59372E-001	1.87199E-002	0.00000E+000	8.60450E-001	-6.03474E-005	10	...........	-327.56
	1640	820.5	8.51464E-001	1.87333E-002	0.00000E+000	8.52450E-001	-5.71808E-005	10	...........	-327.56
	1648	824.5	8.43417E-001	1.87651E-002	0.00000E+000	8.44450E-001	-6.13474E-005	10	...........	-327.56
	1656	828.5	8.35389E-001	1.88350E-002	0.00000E+000	8.36450E-001	-5.85474E-005	10	...........	-327.56
	1664	832.5	8.27481E-001	1.88942E-002	0.00000E+000	8.28450E-001	-5.86474E-005	10	...........	-327.56
	1672	836.5	8.19432E-001	1.89646E-002	0.00000E+000	8.20450E-001	-5.80808E-005	10	...........	-327.56
	1680	840.5	8.11446E-001	1.90275E-002	0.00000E+000	8.12450E-001	-6.04808E-005	10	...........	-327.56
	1688	844.5	8.03525E-001	1.91025E-002	0.00000E+000	8.04450E-001	-6.01474E-005	10	...........	-327.56
	1696	848.5	7.95508E-001	1.91870E-002	0.00000E+000	7.96450E-001	-5.96808E-005	10	...........	-327.56
	1704	852.5	7.87466E-001	1.92438E-002	0.00000E+000	7.88450E-001	-5.86808E-005	10	...........	-327.56
	1712	856.5	7.79535E-001	1.92892E-002	0.00000E+000	7.80450E-001	-6.19808E-005	10	...........	-327.56
	1720	860.5	7.71534E-001	1.93471E-002	0.00000E+000	7.72450E-001	-5.84808E-005	10	...........	-327.56
	1728	864.5	7.63493E-001	1.93897E-002	0.00000E+000	7.64450E-001	-6.02808E-005	10	...........	-327.56
	1736	868.5	7.55443E-001	1.94479E-002	0.00000E+000	7.56450E-001	-5.84474E-005	10	...........	-327.56
	1744	872.5	7.47551E-001	1.94690E-002	0.00000E+000	7.48450E-001	-5.71474E-005	10	...........	-327.56
	1752	876.5	7.39511E-001	1.94806E-002	0.00000E+000	7.40450E-001	-5.79141E-005	10	...........	-327.56
	1760	880.5	7.31456E-001	1.94811E-002	0.00000E+000	7.32450E-001	-6.16141E-005	10	...........	-327.56
	1768	884.5	7.23569E-001	1.94827E-002	0.00000E+000	7.24450E-001	-5.79474E-005	10	...........	-327.56
	1776	888.5	7.15568E-001	1.94561E-002	0.00000E+000	7.16450E-001	-5.81808E-005	10	...........	-327.56
	1784	892.5	7.07537E-001	1.94371E-002	0.00000E+000	7.08450E-001	-5.63141E-005	10	...........	-327.56
	1792	896.5	6.99639E-001	1.93952E-002	0.00000E+000	7.00450E-001	-6.00474E-005	10	...........	-327.56
	1800	900.5	6.91584E-001	1.93615E-002	0.00000E+000	6.92450E-001	-5.47141E-005	10	...........	-327.56
	1808	904.5	6.83562E-001	1.93190E-002	0.00000E+000	6.84450E-001	-5.80808E-005	10	...........	-327.56
	1816	908.5	6.75650E-001	1.92473E-002	0.00000E+000	6.76450E-001	-5.43808E-005	10	...........	-327.56
	1824	912.5	6.67625E-001	1.91830E-002	0.00000E+000	6.68450E-001	-5.79808E-005	10	...........	-327.56
	1832	916.5	6.59583E-001	1.91122E-002	0.00000E+000	6.60450E-001	-5.69808E-005	10	...........	-327.56
	1840	920.5	6.51671E-001	1.90250E-002	0.00000E+000	6.52450E-001	-6.13141E-005	10	...........	-327.56
	1848	924.5	6.43657E-001	1.89463E-002	0.00000E+000	6.44450E-001	-5.86808E-005	10	...........	-327.56
	1856	928.5	6.35608E-001	1.88482E-002	0.00000E+000	6.36450E-001	-6.05474E-005	10	...........	-327.56
	1864	932.5	6.27574E-001	1.87706E-002	0.00000E+000	6.28450E-001	-5.58808E-005	10	...........	-327.56
	1872	936.5	6.19676E-001	1.86816E-002	0.00000E+000	6.20450E-001	-6.24141E-005	10	...........	-327.56
	1880	940.5	6.11656E-001	1.85709E-002	0.00000E+000	6.12450E-001	-5.96141E-005	10	...........	-327.56
	1888	944.5	6.03609E-001	1.84551E-002	0.00000E+000	6.04450E-001	-5.79141E-005	10	...........	-327.56
	1896	948.5	5.95723E-001	1.83441E-002	0.00000E+000	5.96450E-001	-5.95808E-005	10	...........	-327.56
	1904	952.5	5.87674E-001	1.82316E-002	0.00000E+000	5.88450E-001	-6.20808E-005	10	...........	-327.56
	1912	956.5	5.79632E-001	1.81115E-002	0.00000E+000	5.80450E-001	-5.72808E-005	10	...........	-327.56
	1920	960.5	5.71750E-001	1.79968E-002	0.00000E+000	5.72450E-001	-5.97141E-005	10	...........	-327.56
	1928	964.5	5.63700E-001	1.78829E-002	0.00000E+000	5.64450E-001	-6.02474E-005	10	...........	-327.56
	1936	968.5	5.55675E-001	1.77490E-002	0.00000E+000	5.56450E-001	-5.85141E-005	10	...........	-327.56
	1944	972.5	5.47779E-001	1.76298E-002	0.00000E+000	5.48450E-001	-5.78808E-005	10	...........	-327.56
	1952	976.5	5.39751E-001	1.75046E-002	0.00000E+000	5.40450E-001	-5.74808E-005	10	...........	-327.56
	1960	980.5	5.31691E-001	1.73602E-002	0.00000E+000	5.32450E-001	-5.75808E-005	10	...........	-327.56
	1968	984.5	5.23783E-001	1.72290E-002	0.00000E+000	5.24450E-001	-5.99474E-005	10	...........	-327.56
	1976	988.5	5.15781E-001	1.70801E-002	0.00000E+000	5.16450E-001	-5.87141E-005	10	...........	-327.56
	1984	992.5	5.07784E-001	1.69355E-002	0.00000E+000	5.08450E-001	-5.98808E-005	10	...........	-327.56
	1992	996.5	4.99750E-001	1.67816E-002	0.00000E+000	5.00450E-001	-5.86808E-005	10	...........	-327.56
	2000	1000.5	4.91851E-001	1.66155E-002	0.00000E+000	4.92450E-001	-5.91474E-005	10	...........	-327.56
	2008	1004.5	4.83805E-001	1.64571E-002	0.00000E+000	4.84450E-001	-6.25141E-005	10	...........	-327.56
	2016	1008.5	4.75763E-001	1.62555E-002	0.00000E+000	4.76450E-001	-6.02808E-005	10	...........	-327.56
	2024	1012.5	4.67873E-001	1.60239E-002	0.00000E+000	4.68450E-001	-5.69474E-005	10	...........	-327.56
	2032	1016.5	4.59835E-001	1.57963E-002	0.00000E+000	4.60450E-001	-5.68808E-005	10	...........	-327.56
	2040	1020.5	4.51815E-001	1.55573E-002	0.00000E+000	4.52450E-001	-5.65808E-005	10	...........	-327.56
	2048	1024.5	4.43911E-001	1.52843E-002	0.00000E+000	4.44450E-001	-6.10474E-005	10	...........	-327.56
	2056	1028.5	4.35869E-001	1.49467E-002	0.00000E+000	4.36450E-001	-5.92141E-005	10	...........	-327.56
	2064	1032.5	4.27843E-001	1.46230E-002	0.00000E+000	4.28450E-001	-5.61474E-005	10	...........	-327.56
	2072	1036.5	4.19918E-001	1.42619E-002	0.00000E+000	4.20450E-001	-5.87808E-005	10	...........	-327.56
	2080	1040.5	4.11924E-001	1.39005E-002	0.00000E+000	4.12450E-001	-5.89141E-005	10	...........	-327.56
	2088	1044.5	4.03871E-001	1.35415E-002	0.00000E+000	4.04450E-001	-5.72808E-005	10	...........	-327.56
	2096	1048.5	3.95923E-001	1.32048E-002	0.00000E+000	3.96450E-001	-6.17141E-005	10	...........	-327.56
	2104	1052.5	3.87946E-001	1.29040E-002	0.00000E+000	3.88450E-001	-6.09474E-005	10	...........	-327.56
	2112	1056.5	3.79910E-001	1.27612E-002	0.00000E+000	3.80450E-001	-5.67808E-005	10	...........	-327.56
	2120	1060.5	3.71861E-001	1.25355E-002	0.00000E+000	3.72450E-001	-6.26808E-005	10	...........	-327.56
	2128	1064.5	3.63965E-001	1.23593E-002	0.00000E+000	3.64450E-001	-5.97141E-005	10	...........	-327.56
	2136	1068.5	3.55928E-001	1.22395E-002	0.00000E+000	3.56450E-001	-5.71474E-005	10	...........	-327.56
	2144	1072.5	3.47908E-001	1.21575E-002	0.00000E+000	3.48450E-001	-6.39474E-005	10	...........	-327.56
	2152	1076.5	3.39986E-001	1.21384E-002	0.00000E+000	3.40450E-001	-5.81474E-005	10	...........	-327.56
	2160	1080.5	3.31956E-001	1.23144E-002	0.00000E+000	3.32450E-001	-5.83141E-005	10	...........	-327.56
	2168	1084.5	3.23928E-001	1.27133E-002	0.00000E+000	3.24450E-001	-5.89808E-005	10	...........	-327.56
	2176	1088.5	3.15991E-001	1.31896E-002	0.00000E+000	3.16450E-001	-6.09808E-005	10	...........	-327.56
	2184	1092.5	3.07956E-001	1.35387E-002	0.00000E+000	3.08450E-001	-5.48141E-005	10	...........	-327.56
	2192	1096.5	2.99975E-001	1.34909E-002	0.00000E+000	3.00450E-001	-5.71808E-005	10	...........	-327.56
	2200	1100.5	2.92043E-001	1.30805E-002	0.00000E+000	2.92450E-001	-5.87474E-005	10	...........	-327.56
	2208	1104.5	2.84043E-001	1.23594E-002	0.00000E+000	2.84450E-001	-6.00141E-005	10	...........	-327.56
	2216	1108.5	2.76004E-001	1.14597E-002	0.00000E+000	2.76450E-001	-6.12474E-005	10	...........	-327.56
	2224	1112.5	2.68082E-001	1.03956E-002	0.00000E+000	2.68450E-001	-6.22808E-005	10	...........	-327.56
	2232	1116.5	2.60098E-001	9.30525E-003	0.00000E+000	2.60450E-001	-5.80141E-005	10	...........	-327.56
	2240	1120.5	2.52074E-001	8.26851E-003	0.00000E+000	2.52450E-001	-6.00474E-005	10	...........	-327.56
	2248	1124.5	2.44038E-001	7.31851E-003	0.00000E+000	2.44450E-001	-6.14141E-005	10	...........	-327.56
	2256	1128.5	2.36177E-001	6.45842E-003	0.00000E+000	2.36450E-001	-6.18474E-005	10	...........	-327.56
	2264	1132.5	2.28135E-001	5.57286E-003	0.00000E+000	2.28450E-001	-6.34808E-005	10	...........	-327.56
	2272	1136.5	2.20101E-001	4.70043E-003	0.00000E+000	2.20450E-001	-6.37474E-005	10	...........	-327.56
	2280	1140.5	2.12206E-001	3.89984E-003	0.00000E+000	2.12450E-001	-6.08474E-005	10	...........	-327.56
	2288	1144.5	2.04208E-001	3.16583E-003	0.00000E+000	2.04450E-001	-6.22808E-005	10	...........	-327.56
	2296	1148.5	1.96189E-001	2.49736E-003	0.00000E+000	1.96450E-001	-6.15141E-005	10	...........	-327.56
	2304	1152.5	1.88057E-001	1.86761E-003	0.00000E+000	1.88450E-001	-5.78141E-005	9	...........	-327.56
	2312	1156.5	1.80093E-001	1.32311E-003	0.00000E+000	1.80450E-001	-6.02474E-005	9	...........	-327.56
	2320	1160.5	1.72129E-001	8.26656E-004	0.00000E+000	1.72450E-001	-6.21474E-005	9	...........	-327.56
	2328	1164.5	1.64247E-001	3.83241E-004	0.00000E+000	1.64450E-001	-5.93141E-005	9	...........	-327.56
	2336	1168.5	1.56434E-001	-1.19217E-005	0.00000E+000	1.56450E-001	-6.01474E-005	7	...........	-327.56
	2344	1172.5	1.48311E-001	-4.07804E-004	0.00000E+000	1.48450E-001	-6.09474E-005	9	...........	-327.56
	2352	1176.5	1.40403E-001	-7.16007E-004	0.00000E+000	1.40450E-001	-5.86808E-005	9	...........	-327.56
	2360	1180.5	1.32452E-001	-1.00973E-003	0.00000E+000	1.32450E-001	-6.11808E-005	9	...........	-327.56
	2368	1184.5	1.24433E-001	-1.29854E-003	0.00000E+000	1.24450E-001	-6.15474E-005	9	...........	-327.56
	2376	1188.5	1.16430E-001	-1.52404E-003	0.00000E+000	1.16450E-001	-5.98808E-005	9	...........	-327.56
	2384	1192.5	1.08560E-001	-1.74017E-003	0.00000E+000	1.08450E-001	-6.00141E-005	9	...........	-327.56
	2392	1196.5	1.00627E-001	-1.95168E-003	0.00000E+000	1.00450E-001	-5.93474E-005	9	...........	-327.56
	2400	1200.5	9.26633E-002	-2.12278E-003	0.00000E+000	9.24500E-002	-5.62808E-005	9	...........	-327.56
	2408	1204.5	8.47146E-002	-2.30797E-003	0.00000E+000	8.44500E-002	-5.97808E-005	9	...........	-327.56
	2416	1208.5	7.67122E-002	-2.45022E-003	0.00000E+000	7.64500E-002	-5.79141E-005	9	...........	-327.56
	2424	1212.5	6.87390E-002	-2.59704E-003	0.00000E+000	6.84500E-002	-5.57141E-005	9	...........	-327.56
	2432	1216.5	6.04554E-002	-2.72340E-003	0.00000E+000	6.04500E-002	-6.10141E-005	10	...........	-327.56
	2440	1220.5	5.24303E-002	-2.83343E-003	0.00000E+000	5.24500E-002	-6.18808E-005	10	...........	-327.56
	2448	1224.5	4.43910E-002	-2.92139E-003	0.00000E+000	4.44500E-002	-5.74474E-005	10	...........	-327.56
	2456	1228.5	3.64833E-002	-3.00766E-003	0.00000E+000	3.64500E-002	-6.32808E-005	10	...........	-327.56
	2464	1232.5	2.84594E-002	-3.09156E-003	0.00000E+000	2.84500E-002	-6.12474E-005	10	...........	-327.56
	2472	1236.5	2.04072E-002	-3.16085E-003	0.00000E+000	2.04500E-002	-6.07474E-005	10	...........	-327.56
	2480	1240.5	1.24683E-002	-3.20649E-003	0.00000E+000	1.24500E-002	-5.75808E-005	10	...........	-327.56
	2488	1244.5	4.47176E-003	-3.25396E-003	0.00000E+000	4.45001E-003	-5.81808E-005	10	...........	-327.56
	2496	1248.5	-3.28896E-003	-3.30168E-003	0.00000E+000	-3.54999E-003	-6.02808E-005	10	...........	-327.56
	2504	1252.5	-1.13271E-002	-3.35942E-003	0.00000E+000	-1.15500E-002	-6.27474E-005	10	...........	-327.56
	2512	1256.5	-1.92685E-002	-3.43404E-003	0.00000E+000	-1.95500E-002	-6.06474E-005	10	...........	-327.56
	2520	1260.5	-2.72834E-002	-3.53343E-003	0.00000E+000	-2.75500E-002	-6.27141E-005	10	...........	-327.56
	2528	1264.5	-3.52806E-002	-3.65325E-003	0.00000E+000	-3.55500E-002	-6.41474E-005	10	...........	-327.56
	2536	1268.5	-4.32577E-002	-3.77774E-003	0.00000E+000	-4.35500E-002	-6.19808E-005	10	...........	-327.56
	2544	1272.5	-5.12640E-002	-3.89832E-003	0.00000E+000	-5.15500E-002	-6.32141E-005	10	...........	-327.56
	2552	1276.5	-5.92591E-002	-4.00091E-003	0.00000E+000	-5.95500E-002	-6.27808E-005	10	...........	-327.56
	2560	1280.5	-6.72310E-002	-4.10057E-003	0.00000E+000	-6.75500E-002	-6.16474E-005	10	...........	-327.56
	2568	1284.5	-7.52416E-002	-4.17177E-003	0.00000E+000	-7.55500E-002	-6.08141E-005	10	...........	-327.56
	2576	1288.5	-8.32541E-002	-4.23659E-003	0.00000E+000	-8.35500E-002	-6.20808E-005	10	...........	-327.56
	2584	1292.5	-9.12205E-002	-4.30497E-003	0.00000E+000	-9.15500E-002	-6.17474E-005	10	...........	-327.56
	2592	1296.5	-9.92273E-002	-4.38812E-003	0.00000E+000	-9.95500E-002	-5.91141E-005	10	...........	-327.56
	2600	1300.5	-1.07221E-001	-4.48670E-003	0.00000E+000	-1.07550E-001	-5.89808E-005	10	...........	-327.56
	2608	1304.5	-1.15165E-001	-4.61187E-003	0.00000E+000	-1.15550E-001	-6.20141E-005	10	...........	-327.56
	2616	1308.5	-1.23157E-001	-4.76087E-003	0.00000E+000	-1.23550E-001	-6.28808E-005	10	...........	-327.56
	2624	1312.5	-1.31200E-001	-4.93242E-003	0.00000E+000	-1.31550E-001	-5.91474E-005	10	...........	-327.56
	2632	1316.5	-1.39231E-001	-5.12367E-003	0.00000E+000	-1.39550E-001	-6.19808E-005	10	...........	-327.56
	2640	1320.5	-1.47132E-001	-5.33269E-003	0.00000E+000	-1.47550E-001	-6.25141E-005	10	...........	-327.56
	2648	1324.5	-1.55168E-001	-5.54066E-003	0.00000E+000	-1.55550E-001	-6.15808E-005	10	...........	-327.56
	2656	1328.5	-1.63195E-001	-5.79442E-003	0.00000E+000	-1.63550E-001	-5.79141E-005	10	...........	-327.56
	2664	1332.5	-1.71109E-001	-6.05872E-003	0.00000E+000	-1.71550E-001	-6.34474E-005	10	...........	-327.56
	2672	1336.5	-1.79143E-001	-6.34974E-003	0.00000E+000	-1.79550E-001	-6.20141E-005	10	...........	-327.56
	2680	1340.5	-1.87164E-001	-6.67882E-003	0.00000E+000	-1.87550E-001	-6.43808E-005	10	...........	-327.56
	2688	1344.5	-1.95073E-001	-7.05641E-003	0.00000E+000	-1.95550E-001	-6.30474E-005	10	...........	-327.56
	2696	1348.5	-2.03094E-001	-7.49313E-003	0.00000E+000	-2.03550E-001	-6.09141E-005	10	...........	-327.56
	2704	1352.5	-2.11104E-001	-7.98150E-003	0.00000E+000	-2.11550E-001	-6.03141E-005	10	...........	-327.56
	2712	1356.5	-2.19027E-001	-8.50445E-003	0.00000E+000	-2.19550E-001	-6.39808E-005	10	...........	-327.56
	2720	1360.5	-2.27027E-001	-9.06008E-003	0.00000E+000	-2.27550E-001	-6.23141E-005	10	...........	-327.56
	2728	1364.5	-2.35061E-001	-9.64932E-003	0.00000E+000	-2.35550E-001	-6.01474E-005	10	...........	-327.56
	2736	1368.5	-2.43058E-001	-1.02777E-002	0.00000E+000	-2.43550E-001	-5.97474E-005	10	...........	-327.56
	2744	1372.5	-2.50981E-001	-1.09855E-002	0.00000E+000	-2.51550E-001	-6.11474E-005	10	...........	-327.56
	2752	1376.5	-2.59012E-001	-1.18002E-002	0.00000E+000	-2.59550E-001	-6.12808E-005	10	...........	-327.56
	2760	1380.5	-2.67020E-001	-1.27263E-002	0.00000E+000	-2.67550E-001	-6.17474E-005	10	...........	-327.56
	2768	1384.5	-2.74922E-001	-1.37964E-002	0.00000E+000	-2.75550E-001	-5.93474E-005	10	...........	-327.56
	2776	1388.5	-2.82952E-001	-1.50566E-002	0.00000E+000	-2.83550E-001	-6.01808E-005	10	...........	-327.56
	2784	1392.5	-2.90974E-001	-1.64976E-002	0.00000E+000	-2.91550E-001	-5.82808E-005	10	...........	-327.56
	2792	1396.5	-2.98861E-001	-1.81405E-002	0.00000E+000	-2.99550E-001	-5.67474E-005	10	...........	-327.56
	2800	1400.5	-3.06872E-001	-2.00088E-002	0.00000E+000	-3.07550E-001	-5.31141E-005	10	...........	-327.56
	2808	1404.5	-3.14827E-001	-2.21170E-002	0.00000E+000	-3.15550E-001	-5.39141E-005	10	...........	-327.56
	2816	1408.5	-3.22719E-001	-2.44607E-002	0.00000E+000	-3.23550E-001	-5.30141E-005	10	...........	-327.56
	2824	1412.5	-3.31005E-001	-2.73013E-002	0.00000E+000	-3.31550E-001	-5.95808E-005	11	...........	-327.56
	2832	1416.5	-3.39043E-001	-3.01457E-002	0.00000E+000	-3.39550E-001	-6.06808E-005	11	...........	-327.56
	2840	1420.5	-3.46964E-001	-3.34025E-002	0.00000E+000	-3.47550E-001	-5.84808E-005	11	...........	-327.56
	2848	1424.5	-3.54966E-001	-3.69852E-002	0.00000E+000	-3.55550E-001	-5.78808E-005	11	...........	-327.56
	2856	1428.5	-3.63007E-001	-4.09289E-002	0.00000E+000	-3.63550E-001	-6.02808E-005	11	...........	-327.56
	2864	1432.5	-3.71024E-001	-4.52987E-002	0.00000E+000	-3.71550E-001	-5.98141E-005	11	...........	-327.56
	2872	1436.5	-3.78923E-001	-5.01203E-002	0.00000E+000	-3.79550E-001	-5.73474E-005	11	...........	-327.56
[...]
	9413	4707	3.20383E-001	1.28210E-001	0.00000E+000	3.21000E-001	-5.89141E-005	11	...........	-327.56
	9418	4709.5	3.25426E-001	1.29740E-001	0.00000E+000	3.26000E-001	-5.90141E-005	11	...........	-327.56
	9423	4712	3.30439E-001	1.31937E-001	0.00000E+000	3.31000E-001	-6.23808E-005	11	...........	-327.56
	9428	4714.5	3.35464E-001	1.33807E-001	0.00000E+000	3.36000E-001	-5.96141E-005	11	...........	-327.56
	9433	4717	3.40465E-001	1.35254E-001	0.00000E+000	3.41000E-001	-6.24808E-005	11	...........	-327.56
	9438	4719.5	3.45471E-001	1.36396E-001	0.00000E+000	3.46000E-001	-5.89474E-005	11	...........	-327.56
	9443	4722	3.50401E-001	1.37281E-001	0.00000E+000	3.51000E-001	-6.20474E-005	11	...........	-327.56
	9448	4724.5	3.55412E-001	1.35416E-001	0.00000E+000	3.56000E-001	-6.05141E-005	11	...........	-327.56
	9453	4727	3.60427E-001	1.36788E-001	0.00000E+000	3.61000E-001	-6.28808E-005	11	...........	-327.56
	9458	4729.5	3.65450E-001	1.40426E-001	0.00000E+000	3.66000E-001	-5.90141E-005	11	...........	-327.56
	9463	4732	3.70418E-001	1.43302E-001	0.00000E+000	3.71000E-001	-6.27474E-005	11	...........	-327.56
	9468	4734.5	3.75354E-001	1.46135E-001	0.00000E+000	3.76000E-001	-6.08808E-005	11	...........	-327.56
	9473	4737	3.80363E-001	1.47351E-001	0.00000E+000	3.81000E-001	-5.84808E-005	11	...........	-327.56
	9478	4739.5	3.85431E-001	1.50363E-001	0.00000E+000	3.86000E-001	-6.04141E-005	11	...........	-327.56
	9483	4742	3.90412E-001	1.53326E-001	0.00000E+000	3.91000E-001	-6.04474E-005	11	...........	-327.56
	9488	4744.5	3.95424E-001	1.54772E-001	0.00000E+000	3.96000E-001	-6.03808E-005	11	...........	-327.56
	9493	4747	4.00314E-001	1.58826E-001	0.00000E+000	4.01000E-001	-5.94474E-005	11	...........	-327.56
	9498	4749.5	4.05334E-001	1.61899E-001	0.00000E+000	4.06000E-001	-6.10141E-005	11	...........	-327.56
	9503	4752	4.10363E-001	1.64797E-001	0.00000E+000	4.11000E-001	-5.64474E-005	11	...........	-327.56
	9508	4754.5	4.15385E-001	1.67097E-001	0.00000E+000	4.16000E-001	-5.97141E-005	11	...........	-327.56
	9513	4757	4.20362E-001	1.71138E-001	0.00000E+000	4.21000E-001	-6.11808E-005	11	...........	-327.56
	9518	4759.5	4.25283E-001	1.73700E-001	0.00000E+000	4.26000E-001	-6.27474E-005	11	...........	-327.56
	9523	4762	4.30346E-001	1.74273E-001	0.00000E+000	4.31000E-001	-6.06141E-005	11	...........	-327.56
	9528	4764.5	4.35327E-001	1.74209E-001	0.00000E+000	4.36000E-001	-5.99808E-005	11	...........	-327.56
	9533	4767	4.40364E-001	1.71458E-001	0.00000E+000	4.41000E-001	-5.71808E-005	11	...........	-327.56
	9538	4769.5	4.45382E-001	1.66737E-001	0.00000E+000	4.46000E-001	-5.88808E-005	11	...........	-327.56
	9543	4772	4.50304E-001	1.58134E-001	0.00000E+000	4.51000E-001	-6.04808E-005	11	...........	-327.56
	9548	4774.5	4.55323E-001	1.48311E-001	0.00000E+000	4.56000E-001	-6.09474E-005	11	...........	-327.56
	9553	4777	4.60353E-001	1.38308E-001	0.00000E+000	4.61000E-001	-6.03141E-005	11	...........	-327.56
	9558	4779.5	4.65421E-001	1.30382E-001	0.00000E+000	4.66000E-001	-6.11808E-005	11	...........	-327.56
	9563	4782	4.70428E-001	1.24837E-001	0.00000E+000	4.71000E-001	-5.93141E-005	11	...........	-327.56
	9568	4784.5	4.75333E-001	1.23622E-001	0.00000E+000	4.76000E-001	-6.15141E-005	11	...........	-327.56
	9573	4787	4.80348E-001	1.22382E-001	0.00000E+000	4.81000E-001	-5.85474E-005	11	...........	-327.56
	9578	4789.5	4.85353E-001	1.26749E-001	0.00000E+000	4.86000E-001	-6.10141E-005	11	...........	-327.56
	9583	4792	4.90402E-001	1.25928E-001	0.00000E+000	4.91000E-001	-5.83808E-005	11	...........	-327.56
	9588	4794.5	4.95417E-001	1.25761E-001	0.00000E+000	4.96000E-001	-6.01474E-005	11	...........	-327.56
	9593	4797	5.00308E-001	1.21876E-001	0.00000E+000	5.01000E-001	-6.37141E-005	11	...........	-327.56
	9598	4799.5	5.05374E-001	1.17709E-001	0.00000E+000	5.06000E-001	-6.40808E-005	11	...........	-327.56
	9603	4802	5.10382E-001	1.16681E-001	0.00000E+000	5.11000E-001	-6.07808E-005	11	...........	-327.56
	9608	4804.5	5.15357E-001	1.14904E-001	0.00000E+000	5.16000E-001	-6.22474E-005	11	...........	-327.56
	9613	4807	5.20365E-001	1.17278E-001	0.00000E+000	5.21000E-001	-6.20474E-005	11	...........	-327.56
	9618	4809.5	5.25252E-001	1.15307E-001	0.00000E+000	5.26000E-001	-5.97141E-005	11	...........	-327.56
	9623	4812	5.30305E-001	1.13825E-001	0.00000E+000	5.31000E-001	-6.21141E-005	11	...........	-327.56
	9628	4814.5	5.35313E-001	1.13115E-001	0.00000E+000	5.36000E-001	-6.26808E-005	11	...........	-327.56
	9633	4817	5.40337E-001	1.10614E-001	0.00000E+000	5.41000E-001	-5.69141E-005	11	...........	-327.56
	9638	4819.5	5.45374E-001	1.09321E-001	0.00000E+000	5.46000E-001	-6.09141E-005	11	...........	-327.56
	9643	4822	5.50373E-001	1.07994E-001	0.00000E+000	5.51000E-001	-5.94474E-005	11	...........	-327.56
	9648	4824.5	5.55297E-001	1.07156E-001	0.00000E+000	5.56000E-001	-6.18808E-005	11	...........	-327.56
	9653	4827	5.60306E-001	1.07101E-001	0.00000E+000	5.61000E-001	-6.05474E-005	11	...........	-327.56
	9658	4829.5	5.65325E-001	1.05127E-001	0.00000E+000	5.66000E-001	-6.29474E-005	11	...........	-327.56
	9663	4832	5.70349E-001	1.05623E-001	0.00000E+000	5.71000E-001	-5.66141E-005	11	...........	-327.56
	9668	4834.5	5.75350E-001	1.04423E-001	0.00000E+000	5.76000E-001	-6.18474E-005	11	...........	-327.56
	9673	4837	5.80255E-001	1.01898E-001	0.00000E+000	5.81000E-001	-6.28474E-005	11	...........	-327.56
	9678	4839.5	5.85295E-001	9.97167E-002	0.00000E+000	5.86000E-001	-6.00808E-005	11	...........	-327.56
	9683	4842	5.90353E-001	9.87686E-002	0.00000E+000	5.91000E-001	-6.42141E-005	11	...........	-327.56
	9688	4844.5	5.95347E-001	9.64820E-002	0.00000E+000	5.96000E-001	-6.06474E-005	11	...........	-327.56
	9693	4847	6.00354E-001	9.43690E-002	0.00000E+000	6.01000E-001	-6.10808E-005	11	...........	-327.56
	9698	4849.5	6.05248E-001	9.24338E-002	0.00000E+000	6.06000E-001	-6.10474E-005	11	...........	-327.56
	9703	4852	6.10316E-001	9.08884E-002	0.00000E+000	6.11000E-001	-6.04474E-005	11	...........	-327.56
	9708	4854.5	6.15302E-001	8.88237E-002	0.00000E+000	6.16000E-001	-6.09808E-005	11	...........	-327.56
	9713	4857	6.20325E-001	8.76629E-002	0.00000E+000	6.21000E-001	-5.92141E-005	11	...........	-327.56
	9718	4859.5	6.25345E-001	8.58020E-002	0.00000E+000	6.26000E-001	-6.01141E-005	11	...........	-327.56
	9723	4862	6.30333E-001	8.42559E-002	0.00000E+000	6.31000E-001	-6.08808E-005	11	...........	-327.56
	9728	4864.5	6.35293E-001	8.22900E-002	0.00000E+000	6.36000E-001	-5.97808E-005	11	...........	-327.56
	9733	4867	6.40292E-001	8.04336E-002	0.00000E+000	6.41000E-001	-5.72808E-005	11	...........	-327.56
	9738	4869.5	6.45332E-001	7.90074E-002	0.00000E+000	6.46000E-001	-6.06808E-005	11	...........	-327.56
	9743	4872	6.50347E-001	7.74726E-002	0.00000E+000	6.51000E-001	-5.96474E-005	11	...........	-327.56
	9748	4874.5	6.55231E-001	7.58859E-002	0.00000E+000	6.56000E-001	-6.20141E-005	11	...........	-327.56
	9753	4877	6.60260E-001	7.44232E-002	0.00000E+000	6.61000E-001	-5.97474E-005	11	...........	-327.56
	9758	4879.5	6.65290E-001	7.31701E-002	0.00000E+000	6.66000E-001	-6.05141E-005	11	...........	-327.56
	9763	4882	6.70342E-001	7.18323E-002	0.00000E+000	6.71000E-001	-6.29474E-005	11	...........	-327.56
	9768	4884.5	6.75333E-001	7.07539E-002	0.00000E+000	6.76000E-001	-5.67141E-005	11	...........	-327.56
	9773	4887	6.80226E-001	6.96718E-002	0.00000E+000	6.81000E-001	-6.20808E-005	11	...........	-327.56
	9778	4889.5	6.85247E-001	6.83546E-002	0.00000E+000	6.86000E-001	-5.78808E-005	11	...........	-327.56
	9783	4892	6.90286E-001	6.70498E-002	0.00000E+000	6.91000E-001	-5.99474E-005	11	...........	-327.56
	9788	4894.5	6.95313E-001	6.60638E-002	0.00000E+000	6.96000E-001	-5.73141E-005	11	...........	-327.56
	9793	4897	7.00312E-001	6.49024E-002	0.00000E+000	7.01000E-001	-5.91141E-005	11	...........	-327.56
	9798	4899.5	7.05235E-001	6.35999E-002	0.00000E+000	7.06000E-001	-6.09808E-005	11	...........	-327.56
	9803	4902	7.10319E-001	6.28312E-002	0.00000E+000	7.11000E-001	-6.09808E-005	11	...........	-327.56
	9808	4904.5	7.15286E-001	6.18453E-002	0.00000E+000	7.16000E-001	-6.44141E-005	11	...........	-327.56
	9813	4907	7.20268E-001	6.11251E-002	0.00000E+000	7.21000E-001	-5.99808E-005	11	...........	-327.56
	9818	4909.5	7.25283E-001	5.99624E-002	0.00000E+000	7.26000E-001	-6.25141E-005	11	...........	-327.56
	9823	4912	7.30186E-001	5.88367E-002	0.00000E+000	7.31000E-001	-6.18141E-005	11	...........	-327.56
	9828	4914.5	7.35198E-001	5.85992E-002	0.00000E+000	7.36000E-001	-6.03141E-005	11	...........	-327.56
	9833	4917	7.40219E-001	5.75774E-002	0.00000E+000	7.41000E-001	-6.39474E-005	11	...........	-327.56
	9838	4919.5	7.45246E-001	5.67606E-002	0.00000E+000	7.46000E-001	-5.93141E-005	11	...........	-327.56
	9843	4922	7.50298E-001	5.57900E-002	0.00000E+000	7.51000E-001	-6.27808E-005	11	...........	-327.56
	9848	4924.5	7.55255E-001	5.52344E-002	0.00000E+000	7.56000E-001	-6.17474E-005	11	...........	-327.56
	9853	4927	7.60191E-001	5.43920E-002	0.00000E+000	7.61000E-001	-5.98474E-005	11	...........	-327.56
	9858	4929.5	7.65214E-001	5.39829E-002	0.00000E+000	7.66000E-001	-5.80808E-005	11	...........	-327.56
	9863	4932	7.70251E-001	5.31814E-002	0.00000E+000	7.71000E-001	-5.91474E-005	11	...........	-327.56
	9868	4934.5	7.75247E-001	5.27663E-002	0.00000E+000	7.76000E-001	-6.13808E-005	11	...........	-327.56
	9873	4937	7.80228E-001	5.20284E-002	0.00000E+000	7.81000E-001	-6.05474E-005	11	...........	-327.56
	9878	4939.5	7.85168E-001	5.14342E-002	0.00000E+000	7.86000E-001	-6.11141E-005	11	...........	-327.56
	9883	4942	7.90243E-001	5.11165E-002	0.00000E+000	7.91000E-001	-6.17808E-005	11	...........	-327.56
	9888	4944.5	7.95232E-001	5.06537E-002	0.00000E+000	7.96000E-001	-6.07141E-005	11	...........	-327.56
	9893	4947	8.00262E-001	5.02855E-002	0.00000E+000	8.01000E-001	-5.83808E-005	11	...........	-327.56
	9898	4949.5	8.05255E-001	5.01229E-002	0.00000E+000	8.06000E-001	-6.15141E-005	11	...........	-327.56
	9903	4952	8.10170E-001	4.92458E-002	0.00000E+000	8.11000E-001	-6.21141E-005	11	...........	-327.56
	9908	4954.5	8.15191E-001	4.91045E-002	0.00000E+000	8.16000E-001	-5.78141E-005	11	...........	-327.56
	9913	4957	8.20180E-001	4.89266E-002	0.00000E+000	8.21000E-001	-6.30808E-005	11	...........	-327.56
	9918	4959.5	8.25179E-001	4.85774E-002	0.00000E+000	8.26000E-001	-5.77141E-005	11	...........	-327.56
	9923	4962	8.30205E-001	4.84619E-002	0.00000E+000	8.31000E-001	-5.88474E-005	11	...........	-327.56
	9928	4964.5	8.35156E-001	4.78163E-002	0.00000E+000	8.36000E-001	-5.83141E-005	11	...........	-327.56
	9933	4967	8.40134E-001	4.77244E-002	0.00000E+000	8.41000E-001	-6.04141E-005	11	...........	-327.56
	9938	4969.5	8.45149E-001	4.76894E-002	0.00000E+000	8.46000E-001	-5.73141E-005	11	...........	-327.56
	9943	4972	8.50178E-001	4.73882E-002	0.00000E+000	8.51000E-001	-6.30474E-005	11	...........	-327.56
	9948	4974.5	8.55194E-001	4.71297E-002	0.00000E+000	8.56000E-001	-5.79808E-005	11	...........	-327.56
	9953	4977	8.60076E-001	4.70024E-002	0.00000E+000	8.61000E-001	-6.17474E-005	11	...........	-327.56
	9958	4979.5	8.65107E-001	4.65710E-002	0.00000E+000	8.66000E-001	-6.12808E-005	11	...........	-327.56
	9963	4982	8.70135E-001	4.65759E-002	0.00000E+000	8.71000E-001	-6.02474E-005	11	...........	-327.56
	9968	4984.5	8.75174E-001	4.63311E-002	0.00000E+000	8.76000E-001	-6.19808E-005	11	...........	-327.56
	9973	4987	8.80175E-001	4.60436E-002	0.00000E+000	8.81000E-001	-5.80474E-005	11	...........	-327.56
	9978	4989.5	8.85045E-001	4.57781E-002	0.00000E+000	8.86000E-001	-6.09474E-005	11	...........	-327.56
	9983	4992	8.90082E-001	4.55328E-002	0.00000E+000	8.91000E-001	-6.02808E-005	11	...........	-327.56
	9988	4994.5	8.95121E-001	4.54527E-002	0.00000E+000	8.96000E-001	-5.84808E-005	11	...........	-327.56
	9993	4997	9.00145E-001	4.52671E-002	0.00000E+000	9.01000E-001	-5.96474E-005	11	...........	-327.56
	9998	4999.5	9.05132E-001	4.51270E-002	0.00000E+000	9.06000E-001	-6.09808E-005	11	...........	-327.56
	10003	5002	9.10065E-001	4.51256E-002	0.00000E+000	9.11000E-001	-6.12808E-005	11	...........	-327.56
	10008	5004.5	9.15136E-001	4.46605E-002	0.00000E+000	9.16000E-001	-5.98474E-005	11	...........	-327.56
	10013	5007	9.20098E-001	4.47372E-002	0.00000E+000	9.21000E-001	-6.14141E-005	11	...........	-327.56
	10018	5009.5	9.25093E-001	4.44577E-002	0.00000E+000	9.26000E-001	-6.29474E-005	11	...........	-327.56
	10023	5012	9.30108E-001	4.41862E-002	0.00000E+000	9.31000E-001	-6.32808E-005	11	...........	-327.56
	10028	5014.5	9.35000E-001	4.41187E-002	0.00000E+000	9.36000E-001	-5.88808E-005	11	...........	-327.56
	10033	5017	9.40014E-001	4.38440E-002	0.00000E+000	9.41000E-001	-5.98474E-005	11	...........	-327.56
	10038	5019.5	9.45037E-001	4.37670E-002	0.00000E+000	9.46000E-001	-5.98474E-005	11	...........	-327.56
	10043	5022	9.50068E-001	4.36230E-002	0.00000E+000	9.51000E-001	-5.89808E-005	11	...........	-327.56
	10048	5024.5	9.55112E-001	4.33262E-002	0.00000E+000	9.56000E-001	-6.23808E-005	11	...........	-327.56
	10053	5027	9.60063E-001	4.32138E-002	0.00000E+000	9.61000E-001	-5.86474E-005	11	...........	-327.56
	10058	5029.5	9.65007E-001	4.29991E-002	0.00000E+000	9.66000E-001	-5.91474E-005	11	...........	-327.56
	10063	5032	9.70015E-001	4.28985E-002	0.00000E+000	9.71000E-001	-5.97474E-005	11	...........	-327.56
	10068	5034.5	9.75051E-001	4.28078E-002	0.00000E+000	9.76000E-001	-6.19808E-005	11	...........	-327.56
	10073	5037	9.80058E-001	4.25313E-002	0.00000E+000	9.81000E-001	-5.98474E-005	11	...........	-327.56
	10078	5039.5	9.85037E-001	4.22648E-002	0.00000E+000	9.86000E-001	-5.91808E-005	11	...........	-327.56
	10083	5042	9.89970E-001	4.23550E-002	0.00000E+000	9.91000E-001	-6.28141E-005	11	...........	-327.56
	10088	5044.5	9.95041E-001	4.23849E-002	0.00000E+000	9.96000E-001	-6.22141E-005	11	...........	-327.56
	10093	5047	1.00003E+000	4.23665E-002	0.00000E+000	1.00100E+000	-6.23141E-005	11	...........	-327.56
	10098	5049.5	1.00506E+000	4.23122E-002	0.00000E+000	1.00600E+000	-6.02808E-005	11	...........	-327.56
	10103	5052	1.01005E+000	4.23455E-002	0.00000E+000	1.01100E+000	-6.20141E-005	11	...........	-327.56
	10108	5054.5	1.01497E+000	4.26299E-002	0.00000E+000	1.01600E+000	-5.98141E-005	11	...........	-327.56
	10113	5057	1.01999E+000	4.28145E-002	0.00000E+000	1.02100E+000	-6.18141E-005	11	...........	-327.56
	10118	5059.5	1.02499E+000	4.31067E-002	0.00000E+000	1.02600E+000	-6.51808E-005	11	...........	-327.56
	10123	5062	1.03001E+000	4.33906E-002	0.00000E+000	1.03100E+000	-5.72808E-005	11	...........	-327.56
	10128	5064.5	1.03503E+000	4.38278E-002	0.00000E+000	1.03600E+000	-6.03808E-005	11	...........	-327.56
	10133	5067	1.03996E+000	4.43647E-002	0.00000E+000	1.04100E+000	-6.16474E-005	11	...........	-327.56
	10138	5069.5	1.04494E+000	4.48342E-002	0.00000E+000	1.04600E+000	-5.98141E-005	11	...........	-327.56
	10143	5072	1.04996E+000	4.54356E-002	0.00000E+000	1.05100E+000	-5.78474E-005	11	...........	-327.56
	10148	5074.5	1.05500E+000	4.62026E-002	0.00000E+000	1.05600E+000	-6.00141E-005	11	...........	-327.56
	10153	5077	1.06000E+000	4.68031E-002	0.00000E+000	1.06100E+000	-5.97808E-005	11	...........	-327.56
	10158	5079.5	1.06489E+000	4.75356E-002	0.00000E+000	1.06600E+000	-6.18474E-005	11	...........	-327.56
	10163	5082	1.06992E+000	4.84043E-002	0.00000E+000	1.07100E+000	-5.91141E-005	11	...........	-327.56
	10168	5084.5	1.07495E+000	4.91698E-002	0.00000E+000	1.07600E+000	-6.21808E-005	11	...........	-327.56
	10173	5087	1.07997E+000	5.00600E-002	0.00000E+000	1.08100E+000	-5.95141E-005	11	...........	-327.56
	10178	5089.5	1.08498E+000	5.10062E-002	0.00000E+000	1.08600E+000	-6.25474E-005	11	...........	-327.56
	10183	5092	1.08986E+000	5.19344E-002	0.00000E+000	1.09100E+000	-5.99808E-005	11	...........	-327.56
	10188	5094.5	1.09489E+000	5.30146E-002	0.00000E+000	1.09600E+000	-5.96808E-005	11	...........	-327.56
	10193	5097	1.09991E+000	5.40906E-002	0.00000E+000	1.10100E+000	-6.03808E-005	11	...........	-327.56
	10198	5099.5	1.10495E+000	5.52121E-002	0.00000E+000	1.10600E+000	-6.20808E-005	11	...........	-327.56
	10203	5102	1.10993E+000	5.63722E-002	0.00000E+000	1.11100E+000	-5.97141E-005	11	...........	-327.56
	10208	5104.5	1.11485E+000	5.74909E-002	0.00000E+000	1.11600E+000	-6.09474E-005	11	...........	-327.56
	10213	5107	1.11993E+000	5.87243E-002	0.00000E+000	1.12100E+000	-5.91808E-005	11	...........	-327.56
	10218	5109.5	1.12489E+000	6.30059E-002	0.00000E+000	1.12600E+000	-6.19141E-005	11	...........	-327.56
	10223	5112	1.12988E+000	6.30570E-002	0.00000E+000	1.13100E+000	-5.88808E-005	11	...........	-327.56
	10228	5114.5	1.13488E+000	6.34012E-002	0.00000E+000	1.13600E+000	-6.05808E-005	11	...........	-327.56
	10233	5117	1.13979E+000	6.40561E-002	0.00000E+000	1.14100E+000	-6.10808E-005	11	...........	-327.56
	10238	5119.5	1.14480E+000	6.51663E-002	0.00000E+000	1.14600E+000	-6.04141E-005	11	...........	-327.56
	10243	5122	1.14981E+000	6.62508E-002	0.00000E+000	1.15100E+000	-6.18141E-005	11	...........	-327.56
	10248	5124.5	1.15483E+000	6.74429E-002	0.00000E+000	1.15600E+000	-5.81141E-005	11	...........	-327.56
	10253	5127	1.15987E+000	6.84595E-002	0.00000E+000	1.16100E+000	-6.05474E-005	11	...........	-327.56
	10258	5129.5	1.16484E+000	6.93703E-002	0.00000E+000	1.16600E+000	-6.01141E-005	11	...........	-327.56
	10263	5132	1.16978E+000	7.03664E-002	0.00000E+000	1.17100E+000	-6.19474E-005	11	...........	-327.56
	10268	5134.5	1.17479E+000	7.13109E-002	0.00000E+000	1.17600E+000	-5.61474E-005	11	...........	-327.56
	10273	5137	1.17982E+000	7.21466E-002	0.00000E+000	1.18100E+000	-6.06808E-005	11	...........	-327.56
	10278	5139.5	1.18482E+000	7.28115E-002	0.00000E+000	1.18600E+000	-6.10474E-005	11	...........	-327.56
	10283	5142	1.18981E+000	7.34772E-002	0.00000E+000	1.19100E+000	-5.80141E-005	11	...........	-327.56
	10288	5144.5	1.19474E+000	7.43034E-002	0.00000E+000	1.19600E+000	-6.02474E-005	11	...........	-327.56
	10293	5147	1.19979E+000	7.50175E-002	0.00000E+000	1.20100E+000	-6.24474E-005	11	...........	-327.56
	10298	5149.5	1.20480E+000	7.56090E-002	0.00000E+000	1.20600E+000	-6.32141E-005	11	...........	-327.56
	10303	5152	1.20981E+000	7.60720E-002	0.00000E+000	1.21100E+000	-6.04474E-005	11	...........	-327.56
	10308	5154.5	1.21481E+000	7.65152E-002	0.00000E+000	1.21600E+000	-6.00808E-005	11	...........	-327.56
	10313	5157	1.21971E+000	7.68117E-002	0.00000E+000	1.22100E+000	-6.03808E-005	11	...........	-327.56
	10318	5159.5	1.22475E+000	7.72661E-002	0.00000E+000	1.22600E+000	-6.16141E-005	11	...........	-327.56
	10323	5162	1.22978E+000	7.74263E-002	0.00000E+000	1.23100E+000	-6.13141E-005	11	...........	-327.56
	10328	5164.5	1.23479E+000	7.75840E-002	0.00000E+000	1.23600E+000	-6.10474E-005	11	...........	-327.56
	10333	5167	1.23982E+000	7.76315E-002	0.00000E+000	1.24100E+000	-5.86808E-005	11	...........	-327.56
	10338	5169.5	1.24476E+000	7.75313E-002	0.00000E+000	1.24600E+000	-6.11474E-005	11	...........	-327.56
	10343	5172	1.24973E+000	7.72623E-002	0.00000E+000	1.25100E+000	-6.21808E-005	11	...........	-327.56
	10348	5174.5	1.25474E+000	7.68352E-002	0.00000E+000	1.25600E+000	-6.03474E-005	11	...........	-327.56
	10353	5177	1.25979E+000	7.63185E-002	0.00000E+000	1.26100E+000	-5.87808E-005	11	...........	-327.56
	10358	5179.5	1.26479E+000	7.57697E-002	0.00000E+000	1.26600E+000	-5.99141E-005	11	...........	-327.56
	10363	5182	1.26967E+000	7.51837E-002	0.00000E+000	1.27100E+000	-5.95808E-005	11	...........	-327.56
	10368	5184.5	1.27472E+000	7.45286E-002	0.00000E+000	1.27600E+000	-6.04141E-005	11	...........	-327.56
	10373	5187	1.27975E+000	7.36717E-002	0.00000E+000	1.28100E+000	-6.13141E-005	11	...........	-327.56
	10378	5189.5	1.28479E+000	7.30470E-002	0.00000E+000	1.28600E+000	-6.29808E-005	11	...........	-327.56
	10383	5192	1.28978E+000	7.25647E-002	0.00000E+000	1.29100E+000	-5.93474E-005	11	...........	-327.56
	10388	5194.5	1.29468E+000	7.21484E-002	0.00000E+000	1.29600E+000	-6.27141E-005	11	...........	-327.56
	10392	5196.5	1.29869E+000	7.19149E-002	0.00000E+000	1.30000E+000	-5.97141E-005	11	...........	-327.56