File: testing/cyclic_data/1_LOOP_CHRONOA_#2.DTA
EXPLAIN
TAG	CHRONOA
TITLE	LABEL	Chronoamperometry Scan	Test Identifier
DATE	LABEL	5/12/2025	Date
TIME	LABEL	13:06:58	Time
NOTES	NOTES	1	Notes...

PSTAT	PSTAT	REF3000-48128	Potentiostat
VPRESTEP	POTEN	0.00000E+000	F	Pre-step Voltage (V)
TPRESTEP	QUANT	0.00000E+000	Pre-step Delay Time (s)
VSTEP1	POTEN	5.00000E-001	F	Step 1 Voltage (V)
TSTEP1	QUANT	2.00000E+001	Step 1 Time (s)
VSTEP2	POTEN	0.00000E+000	F	Step 2 Voltage (V)
TSTEP2	QUANT	0.00000E+000	Step 2 Time (s)
SAMPLETIME	QUANT	1.00000E-002	Sample Period (s)
DECIMATE	TOGGLE	F	Decimate
ILIMIT	QUANT	1.00000E+001	Limit I (mA/cm^2)
IMODE	SELECTOR	0	I/E Range Mode
IRANGE	QUANT	3.00000E-001	Max Current (mA)
EQDELAY	QUANT	0.00000E+000	Equil. Time (s)
SAMPLINGMODE	SELECTOR	1	Sampling Mode
AREA	QUANT	1.00000E+000	Sample Area (cm^2)
IRCOMP	SELECTOR	0	IRComp
PFCOR	QUANT	5.00000E+001	PF Corr. (ohm)
ELECTRODETYPE	SELECTOR	0	Electrode Type
STRIPPING	TOGGLE	F	Used for Stripping
SEQUENCER	TOGGLE	TRUE	Run as Sequence
PSTATMODEL	IQUANT	5	Pstat Model
PSTATSECTION	LABEL	REF3000-48128	Pstat Section
PSTATSERIALNO	LABEL	48128	Pstat Serial Number
CTRLMODE	IQUANT	1	Control Mode
ELECTROMETER	IQUANT	0	RE=0 or CS=1
IESTAB	IQUANT	0	I/E Stability
CASPEED	IQUANT	4	Control Amp Speed
CONVENTION	IQUANT	1	Current Convention
ICHRANGE	IQUANT	2	Ich Range
ICHRANGEMODE	TOGGLE	T	Ich Auto Range
ICHOFFSETENABLE	TOGGLE	F	Ich Offset Enable
ICHOFFSET	QUANT	0	Ich Offset (V)
ICHFILTER	IQUANT	2	Ich Filter
VCHRANGE	IQUANT	2	Vch Range
VCHRANGEMODE	TOGGLE	F	Vch Auto Range
VCHOFFSETENABLE	TOGGLE	F	Vch Offset Enable
VCHOFFSET	QUANT	0	Vch Offset (V)
VCHFILTER	IQUANT	2	Vch Filter
ACHRANGE	IQUANT	2	Ach Range
ACHOFFSETENABLE	TOGGLE	F	Ach Offset Enable
ACHOFFSET	QUANT	0	Ach Offset (V)
ACHFILTER	IQUANT	1	Ach Filter
IERANGELOWERLIMIT	IQUANT	2	I/E Range Lower Limit
IERANGEMODE	TOGGLE	T	I/E AutoRange
IERANGE	IQUANT	9	I/E Range
POSFEEDENABLE	TOGGLE	F	Positive Feedback IR Comp
POSFEEDRESISTANCE	QUANT	0	Positive Feedback Resistance (ohm)
ACHSELECT	IQUANT	0	Ach Select
SENSECABLEID	IQUANT	14	Sense Cable ID
PWRCABLEID	IQUANT	7	Power Cable ID
DCCALDATE	LABEL	1/13/2025	DC Calibration Date
ACCALDATE	LABEL	8/16/2024	AC Calibration Date
THERMOSELECT	IQUANT	1	Thermo Select
FRAMEWORKVERSION	LABEL	7.10.3	Framework Version
INSTRUMENTVERSION	LABEL	4.91	Instrument Version
COMMVERSION	LABEL	5.10	Communications Version
CPUPLDVERSION	LABEL	6.00	CPU PLD Version
CTRLPLDVERSION	LABEL	3.21	CTRL PLD Version
PSTATPLDVERSION	LABEL	0.00	PSTAT PLD Version
COMPLIANCEVOLTAGE	IQUANT	0	Compliance Voltage
CURVE	TABLE	2001
	Pt	T	Vf	Im	Vu	Sig	Ach	IERange	Over	Temp
	#	s	V vs. Ref.	A	V	V	V	#	bits	deg C
	0	0	-3.18008E-006	1.57962E-007	0.00000E+000	0.00000E+000	-9.43109E-004	9	...........	-327.56
	4	0.04	4.99222E-001	2.49853E-004	0.00000E+000	5.00000E-001	-9.06443E-004	8	...........	-327.56
	8	0.08	4.99222E-001	2.49850E-004	0.00000E+000	5.00000E-001	-8.98109E-004	8	...........	-327.56
	12	0.12	4.99222E-001	2.49853E-004	0.00000E+000	5.00000E-001	-9.31443E-004	8	...........	-327.56
	16	0.16	4.99226E-001	2.49852E-004	0.00000E+000	5.00000E-001	-9.04776E-004	8	...........	-327.56
	20	0.2	4.99221E-001	2.49853E-004	0.00000E+000	5.00000E-001	-9.16443E-004	8	...........	-327.56
	24	0.24	4.99222E-001	2.49852E-004	0.00000E+000	5.00000E-001	-9.21443E-004	8	...........	-327.56
	28	0.28	4.99216E-001	2.49850E-004	0.00000E+000	5.00000E-001	-9.08109E-004	8	...........	-327.56
	32	0.32	4.99216E-001	2.49849E-004	0.00000E+000	5.00000E-001	-9.18109E-004	8	...........	-327.56
	36	0.36	4.99209E-001	2.49850E-004	0.00000E+000	5.00000E-001	-9.28109E-004	8	...........	-327.56
	40	0.4	4.99220E-001	2.49851E-004	0.00000E+000	5.00000E-001	-9.24776E-004	8	...........	-327.56
	44	0.44	4.99212E-001	2.49851E-004	0.00000E+000	5.00000E-001	-9.34776E-004	8	...........	-327.56
	48	0.48	4.99220E-001	2.49850E-004	0.00000E+000	5.00000E-001	-8.96443E-004	8	...........	-327.56
	52	0.52	4.99217E-001	2.49847E-004	0.00000E+000	5.00000E-001	-9.28109E-004	8	...........	-327.56
	56	0.56	4.99209E-001	2.49848E-004	0.00000E+000	5.00000E-001	-9.11443E-004	8	...........	-327.56
	60	0.6	4.99224E-001	2.49851E-004	0.00000E+000	5.00000E-001	-9.18109E-004	8	...........	-327.56
	64	0.64	4.99221E-001	2.49850E-004	0.00000E+000	5.00000E-001	-9.23109E-004	8	...........	-327.56
	68	0.68	4.99225E-001	2.49851E-004	0.00000E+000	5.00000E-001	-9.46443E-004	8	...........	-327.56
	72	0.72	4.99231E-001	2.49853E-004	0.00000E+000	5.00000E-001	-9.04776E-004	8	...........	-327.56
	76	0.76	4.99226E-001	2.49851E-004	0.00000E+000	5.00000E-001	-9.24776E-004	8	...........	-327.56
	80	0.8	4.99216E-001	2.49851E-004	0.00000E+000	5.00000E-001	-8.98109E-004	8	...........	-327.56
	84	0.84	4.99214E-001	2.49850E-004	0.00000E+000	5.00000E-001	-9.23109E-004	8	...........	-327.56
	88	0.88	4.99213E-001	2.49854E-004	0.00000E+000	5.00000E-001	-9.26443E-004	8	...........	-327.56
	92	0.92	4.99222E-001	2.49853E-004	0.00000E+000	5.00000E-001	-9.21443E-004	8	...........	-327.56
	96	0.96	4.99208E-001	2.49856E-004	0.00000E+000	5.00000E-001	-9.23109E-004	8	...........	-327.56
	100	1	4.99217E-001	2.49852E-004	0.00000E+000	5.00000E-001	-9.14776E-004	8	...........	-327.56
	104	1.04	4.99214E-001	2.49853E-004	0.00000E+000	5.00000E-001	-8.98109E-004	8	...........	-327.56
	108	1.08	4.99225E-001	2.49851E-004	0.00000E+000	5.00000E-001	-9.03109E-004	8	...........	-327.56
	112	1.12	4.99225E-001	2.49852E-004	0.00000E+000	5.00000E-001	-9.11443E-004	8	...........	-327.56
	116	1.16	4.99211E-001	2.49853E-004	0.00000E+000	5.00000E-001	-9.11443E-004	8	...........	-327.56
	120	1.2	4.99213E-001	2.49852E-004	0.00000E+000	5.00000E-001	-9.13109E-004	8	...........	-327.56
	124	1.24	4.99236E-001	2.49849E-004	0.00000E+000	5.00000E-001	-9.03109E-004	8	...........	-327.56
	128	1.28	4.99215E-001	2.49850E-004	0.00000E+000	5.00000E-001	-9.09776E-004	8	...........	-327.56
	132	1.32	4.99220E-001	2.49851E-004	0.00000E+000	5.00000E-001	-8.99776E-004	8	...........	-327.56
	136	1.36	4.99220E-001	2.49850E-004	0.00000E+000	5.00000E-001	-8.99776E-004	8	...........	-327.56
	140	1.4	4.99225E-001	2.49848E-004	0.00000E+000	5.00000E-001	-9.31443E-004	8	...........	-327.56
	144	1.44	4.99216E-001	2.49849E-004	0.00000E+000	5.00000E-001	-9.13109E-004	8	...........	-327.56
	148	1.48	4.99216E-001	2.49852E-004	0.00000E+000	5.00000E-001	-9.18109E-004	8	...........	-327.56
	152	1.52	4.99222E-001	2.49850E-004	0.00000E+000	5.00000E-001	-9.14776E-004	8	...........	-327.56
	156	1.56	4.99216E-001	2.49848E-004	0.00000E+000	5.00000E-001	-9.03109E-004	8	...........	-327.56
	160	1.6	4.99220E-001	2.49846E-004	0.00000E+000	5.00000E-001	-9.28109E-004	8	...........	-327.56
	164	1.64	4.99218E-001	2.49850E-004	0.00000E+000	5.00000E-001	-9.08109E-004	8	...........	-327.56
	168	1.68	4.99215E-001	2.49848E-004	0.00000E+000	5.00000E-001	-9.16443E-004	8	...........	-327.56
	172	1.72	4.99204E-001	2.49848E-004	0.00000E+000	5.00000E-001	-9.11443E-004	8	...........	-327.56
	176	1.76	4.99216E-001	2.49850E-004	0.00000E+000	5.00000E-001	-9.28109E-004	8	...........	-327.56
	180	1.8	4.99219E-001	2.49855E-004	0.00000E+000	5.00000E-001	-9.04776E-004	8	...........	-327.56
	184	1.84	4.99217E-001	2.49855E-004	0.00000E+000	5.00000E-001	-9.04776E-004	8	...........	-327.56
	188	1.88	4.99230E-001	2.49850E-004	0.00000E+000	5.00000E-001	-9.14776E-004	8	...........	-327.56
	192	1.92	4.99222E-001	2.49849E-004	0.00000E+000	5.00000E-001	-9.06443E-004	8	...........	-327.56
	196	1.96	4.99219E-001	2.49850E-004	0.00000E+000	5.00000E-001	-9.21443E-004	8	...........	-327.56
	200	2	4.99211E-001	2.49852E-004	0.00000E+000	5.00000E-001	-9.13109E-004	8	...........	-327.56
	204	2.04	4.99223E-001	2.49848E-004	0.00000E+000	5.00000E-001	-9.13109E-004	8	...........	-327.56
	208	2.08	4.99222E-001	2.49850E-004	0.00000E+000	5.00000E-001	-9.18109E-004	8	...........	-327.56
	212	2.12	4.99205E-001	2.49854E-004	0.00000E+000	5.00000E-001	-9.08109E-004	8	...........	-327.56
	216	2.16	4.99226E-001	2.49852E-004	0.00000E+000	5.00000E-001	-9.31443E-004	8	...........	-327.56
	220	2.2	4.99231E-001	2.49854E-004	0.00000E+000	5.00000E-001	-9.14776E-004	8	...........	-327.56
	224	2.24	4.99239E-001	2.49853E-004	0.00000E+000	5.00000E-001	-9.34776E-004	8	...........	-327.56
	228	2.28	4.99223E-001	2.49851E-004	0.00000E+000	5.00000E-001	-9.24776E-004	8	...........	-327.56
	232	2.32	4.99228E-001	2.49850E-004	0.00000E+000	5.00000E-001	-9.29776E-004	8	...........	-327.56
	236	2.36	4.99219E-001	2.49849E-004	0.00000E+000	5.00000E-001	-9.21443E-004	8	...........	-327.56
	240	2.4	4.99223E-001	2.49848E-004	0.00000E+000	5.00000E-001	-9.01442E-004	8	...........	-327.56
	244	2.44	4.99222E-001	2.49849E-004	0.00000E+000	5.00000E-001	-9.03109E-004	8	...........	-327.56
	248	2.48	4.99202E-001	2.49847E-004	0.00000E+000	5.00000E-001	-9.11443E-004	8	...........	-327.56
	252	2.52	4.99224E-001	2.49848E-004	0.00000E+000	5.00000E-001	-9.23109E-004	8	...........	-327.56
	256	2.56	4.99227E-001	2.49850E-004	0.00000E+000	5.00000E-001	-9.14776E-004	8	...........	-327.56
	260	2.6	4.99227E-001	2.49849E-004	0.00000E+000	5.00000E-001	-8.99776E-004	8	...........	-327.56
	264	2.64	4.99212E-001	2.49847E-004	0.00000E+000	5.00000E-001	-9.08109E-004	8	...........	-327.56
	268	2.68	4.99227E-001	2.49852E-004	0.00000E+000	5.00000E-001	-9.28109E-004	8	...........	-327.56
	272	2.72	4.99222E-001	2.49850E-004	0.00000E+000	5.00000E-001	-8.91443E-004	8	...........	-327.56
	276	2.76	4.99239E-001	2.49850E-004	0.00000E+000	5.00000E-001	-9.14776E-004	8	...........	-327.56
	280	2.8	4.99215E-001	2.49847E-004	0.00000E+000	5.00000E-001	-9.28109E-004	8	...........	-327.56
	284	2.84	4.99207E-001	2.49851E-004	0.00000E+000	5.00000E-001	-9.24776E-004	8	...........	-327.56
	288	2.88	4.99216E-001	2.49853E-004	0.00000E+000	5.00000E-001	-9.08109E-004	8	...........	-327.56
	292	2.92	4.99222E-001	2.49851E-004	0.00000E+000	5.00000E-001	-9.14776E-004	8	...........	-327.56
	296	2.96	4.99205E-001	2.49852E-004	0.00000E+000	5.00000E-001	-9.23109E-004	8	...........	-327.56
	300	3	4.99216E-001	2.49850E-004	0.00000E+000	5.00000E-001	-9.23109E-004	8	...........	-327.56
	304	3.04	4.99227E-001	2.49852E-004	0.00000E+000	5.00000E-001	-9.03109E-004	8	...........	-327.56
	308	3.08	4.99233E-001	2.49850E-004	0.00000E+000	5.00000E-001	-9.23109E-004	8	...........	-327.56
	312	3.12	4.99200E-001	2.49848E-004	0.00000E+000	5.00000E-001	-9.26443E-004	8	...........	-327.56
	316	3.16	4.99203E-001	2.49848E-004	0.00000E+000	5.00000E-001	-9.28109E-004	8	...........	-327.56
	320	3.2	4.99229E-001	2.49846E-004	0.00000E+000	5.00000E-001	-9.29776E-004	8	...........	-327.56
	324	3.24	4.99223E-001	2.49848E-004	0.00000E+000	5.00000E-001	-9.28109E-004	8	...........	-327.56
	328	3.28	4.99228E-001	2.49851E-004	0.00000E+000	5.00000E-001	-9.38109E-004	8	...........	-327.56
	332	3.32	4.99207E-001	2.49849E-004	0.00000E+000	5.00000E-001	-9.09776E-004	8	...........	-327.56
	336	3.36	4.99221E-001	2.49848E-004	0.00000E+000	5.00000E-001	-9.24776E-004	8	...........	-327.56
	340	3.4	4.99232E-001	2.49850E-004	0.00000E+000	5.00000E-001	-9.23109E-004	8	...........	-327.56
	344	3.44	4.99206E-001	2.49850E-004	0.00000E+000	5.00000E-001	-9.31443E-004	8	...........	-327.56
	348	3.48	4.99214E-001	2.49847E-004	0.00000E+000	5.00000E-001	-9.19776E-004	8	...........	-327.56
	352	3.52	4.99205E-001	2.49851E-004	0.00000E+000	5.00000E-001	-9.33109E-004	8	...........	-327.56
	356	3.56	4.99219E-001	2.49847E-004	0.00000E+000	5.00000E-001	-9.26443E-004	8	...........	-327.56
	360	3.6	4.99221E-001	2.49847E-004	0.00000E+000	5.00000E-001	-9.23109E-004	8	...........	-327.56
	364	3.64	4.99219E-001	2.49849E-004	0.00000E+000	5.00000E-001	-9.14776E-004	8	...........	-327.56
	368	3.68	4.99225E-001	2.49850E-004	0.00000E+000	5.00000E-001	-9.18109E-004	8	...........	-327.56
	372	3.72	4.99210E-001	2.49849E-004	0.00000E+000	5.00000E-001	-9.21443E-004	8	...........	-327.56
	376	3.76	4.99222E-001	2.49851E-004	0.00000E+000	5.00000E-001	-9.13109E-004	8	...........	-327.56
	380	3.8	4.99227E-001	2.49852E-004	0.00000E+000	5.00000E-001	-9.41443E-004	8	...........	-327.56
	384	3.84	4.99212E-001	2.49849E-004	0.00000E+000	5.00000E-001	-9.28109E-004	8	...........	-327.56
	388	3.88	4.99229E-001	2.49852E-004	0.00000E+000	5.00000E-001	-8.89776E-004	8	...........	-327.56
	392	3.92	4.99220E-001	2.49853E-004	0.00000E+000	5.00000E-001	-9.21443E-004	8	...........	-327.56
	396	3.96	4.99214E-001	2.49854E-004	0.00000E+000	5.00000E-001	-9.26443E-004	8	...........	-327.56
	400	4	4.99216E-001	2.49850E-004	0.00000E+000	5.00000E-001	-8.99776E-004	8	...........	-327.56
	404	4.04	4.99223E-001	2.49852E-004	0.00000E+000	5.00000E-001	-9.23109E-004	8	...........	-327.56
	408	4.08	4.99214E-001	2.49856E-004	0.00000E+000	5.00000E-001	-9.23109E-004	8	...........	-327.56
	412	4.12	4.99223E-001	2.49854E-004	0.00000E+000	5.00000E-001	-9.33109E-004	8	...........	-327.56
	416	4.16	4.99226E-001	2.49853E-004	0.00000E+000	5.00000E-001	-9.13109E-004	8	...........	-327.56
	420	4.2	4.99212E-001	2.49853E-004	0.00000E+000	5.00000E-001	-9.06443E-004	8	...........	-327.56
	424	4.24	4.99222E-001	2.49852E-004	0.00000E+000	5.00000E-001	-9.18109E-004	8	...........	-327.56
	428	4.28	4.99221E-001	2.49854E-004	0.00000E+000	5.00000E-001	-9.29776E-004	8	...........	-327.56
	432	4.32	4.99226E-001	2.49852E-004	0.00000E+000	5.00000E-001	-8.94776E-004	8	...........	-327.56
	436	4.36	4.99218E-001	2.49853E-004	0.00000E+000	5.00000E-001	-9.29776E-004	8	...........	-327.56
	440	4.4	4.99224E-001	2.49849E-004	0.00000E+000	5.00000E-001	-9.24776E-004	8	...........	-327.56
	444	4.44	4.99235E-001	2.49851E-004	0.00000E+000	5.00000E-001	-9.13109E-004	8	...........	-327.56
	448	4.48	4.99214E-001	2.49859E-004	0.00000E+000	5.00000E-001	-9.08109E-004	8	...........	-327.56
	452	4.52	4.99222E-001	2.49852E-004	0.00000E+000	5.00000E-001	-9.08109E-004	8	...........	-327.56
	456	4.56	4.99227E-001	2.49855E-004	0.00000E+000	5.00000E-001	-9.38109E-004	8	...........	-327.56
	460	4.6	4.99225E-001	2.49854E-004	0.00000E+000	5.00000E-001	-9.24776E-004	8	...........	-327.56
	464	4.64	4.99223E-001	2.49853E-004	0.00000E+000	5.00000E-001	-9.21443E-004	8	...........	-327.56
	468	4.68	4.99217E-001	2.49853E-004	0.00000E+000	5.00000E-001	-9.09776E-004	8	...........	-327.56
	472	4.72	4.99222E-001	2.49851E-004	0.00000E+000	5.00000E-001	-9.23109E-004	8	...........	-327.56
	476	4.76	4.99224E-001	2.49853E-004	0.00000E+000	5.00000E-001	-9.14776E-004	8	...........	-327.56
	480	4.8	4.99213E-001	2.49851E-004	0.00000E+000	5.00000E-001	-9.21443E-004	8	...........	-327.56
	484	4.84	4.99230E-001	2.49853E-004	0.00000E+000	5.00000E-001	-9.31443E-004	8	...........	-327.56
	488	4.88	4.99213E-001	2.49849E-004	0.00000E+000	5.00000E-001	-9.24776E-004	8	...........	-327.56
	492	4.92	4.99202E-001	2.49845E-004	0.00000E+000	5.00000E-001	-9.31443E-004	8	...........	-327.56
	496	4.96	4.99216E-001	2.49848E-004	0.00000E+000	5.00000E-001	-9.16443E-004	8	...........	-327.56
	500	5	4.99219E-001	2.49846E-004	0.00000E+000	5.00000E-001	-9.34776E-004	8	...........	-327.56
	504	5.04	4.99204E-001	2.49845E-004	0.00000E+000	5.00000E-001	-9.13109E-004	8	...........	-327.56
	508	5.08	4.99209E-001	2.49846E-004	0.00000E+000	5.00000E-001	-9.29776E-004	8	...........	-327.56
	512	5.12	4.99200E-001	2.49850E-004	0.00000E+000	5.00000E-001	-9.21443E-004	8	...........	-327.56
	516	5.16	4.99212E-001	2.49848E-004	0.00000E+000	5.00000E-001	-9.24776E-004	8	...........	-327.56
	520	5.2	4.99222E-001	2.49851E-004	0.00000E+000	5.00000E-001	-9.29776E-004	8	...........	-327.56
	524	5.24	4.99238E-001	2.49854E-004	0.00000E+000	5.00000E-001	-9.21443E-004	8	...........	-327.56
	528	5.28	4.99217E-001	2.49852E-004	0.00000E+000	5.00000E-001	-9.16443E-004	8	...........	-327.56
	532	5.32	4.99224E-001	2.49851E-004	0.00000E+000	5.00000E-001	-9.16443E-004	8	...........	-327.56
	536	5.36	4.99215E-001	2.49851E-004	0.00000E+000	5.00000E-001	-9.06443E-004	8	...........	-327.56
	540	5.4	4.99222E-001	2.49851E-004	0.00000E+000	5.00000E-001	-9.16443E-004	8	...........	-327.56
	544	5.44	4.99205E-001	2.49849E-004	0.00000E+000	5.00000E-001	-9.33109E-004	8	...........	-327.56
	548	5.48	4.99221E-001	2.49852E-004	0.00000E+000	5.00000E-001	-9.14776E-004	8	...........	-327.56
	552	5.52	4.99216E-001	2.49851E-004	0.00000E+000	5.00000E-001	-9.06443E-004	8	...........	-327.56
	556	5.56	4.99216E-001	2.49850E-004	0.00000E+000	5.00000E-001	-9.24776E-004	8	...........	-327.56
	560	5.6	4.99229E-001	2.49852E-004	0.00000E+000	5.00000E-001	-9.11443E-004	8	...........	-327.56
	564	5.64	4.99218E-001	2.49850E-004	0.00000E+000	5.00000E-001	-9.29776E-004	8	...........	-327.56
	568	5.68	4.99227E-001	2.49852E-004	0.00000E+000	5.00000E-001	-9.24776E-004	8	...........	-327.56
	572	5.72	4.99205E-001	2.49848E-004	0.00000E+000	5.00000E-001	-9.06443E-004	8	...........	-327.56
	576	5.76	4.99215E-001	2.49848E-004	0.00000E+000	5.00000E-001	-9.34776E-004	8	...........	-327.56
	580	5.8	4.99215E-001	2.49849E-004	0.00000E+000	5.00000E-001	-9.09776E-004	8	...........	-327.56
	584	5.84	4.99219E-001	2.49850E-004	0.00000E+000	5.00000E-001	-9.11443E-004	8	...........	-327.56
	588	5.88	4.99209E-001	2.49847E-004	0.00000E+000	5.00000E-001	-9.18109E-004	8	...........	-327.56
	592	5.92	4.99217E-001	2.49848E-004	0.00000E+000	5.00000E-001	-9.16443E-004	8	...........	-327.56
	596	5.96	4.99195E-001	2.49847E-004	0.00000E+000	5.00000E-001	-9.14776E-004	8	...........	-327.56
	600	6	4.99216E-001	2.49850E-004	0.00000E+000	5.00000E-001	-9.21443E-004	8	...........	-327.56
	604	6.04	4.99212E-001	2.49852E-004	0.00000E+000	5.00000E-001	-9.11443E-004	8	...........	-327.56
	608	6.08	4.99232E-001	2.49851E-004	0.00000E+000	5.00000E-001	-9.29776E-004	8	...........	-327.56
	612	6.12	4.99225E-001	2.49852E-004	0.00000E+000	5.00000E-001	-9.26443E-004	8	...........	-327.56
	616	6.16	4.99228E-001	2.49854E-004	0.00000E+000	5.00000E-001	-9.09776E-004	8	...........	-327.56
	620	6.2	4.99232E-001	2.49853E-004	0.00000E+000	5.00000E-001	-9.19776E-004	8	...........	-327.56
	624	6.24	4.99209E-001	2.49852E-004	0.00000E+000	5.00000E-001	-9.06443E-004	8	...........	-327.56
	628	6.28	4.99219E-001	2.49853E-004	0.00000E+000	5.00000E-001	-9.29776E-004	8	...........	-327.56
	632	6.32	4.99203E-001	2.49850E-004	0.00000E+000	5.00000E-001	-9.08109E-004	8	...........	-327.56
	636	6.36	4.99209E-001	2.49851E-004	0.00000E+000	5.00000E-001	-9.13109E-004	8	...........	-327.56
	640	6.4	4.99219E-001	2.49853E-004	0.00000E+000	5.00000E-001	-9.36443E-004	8	...........	-327.56
	644	6.44	4.99232E-001	2.49847E-004	0.00000E+000	5.00000E-001	-9.29776E-004	8	...........	-327.56
	648	6.48	4.99210E-001	2.49848E-004	0.00000E+000	5.00000E-001	-9.36443E-004	8	...........	-327.56
	652	6.52	4.99208E-001	2.49845E-004	0.00000E+000	5.00000E-001	-9.06443E-004	8	...........	-327.56
	656	6.56	4.99221E-001	2.49850E-004	0.00000E+000	5.00000E-001	-9.39776E-004	8	...........	-327.56
	660	6.6	4.99224E-001	2.49849E-004	0.00000E+000	5.00000E-001	-9.11443E-004	8	...........	-327.56
	664	6.64	4.99223E-001	2.49851E-004	0.00000E+000	5.00000E-001	-9.48109E-004	8	...........	-327.56
	668	6.68	4.99232E-001	2.49850E-004	0.00000E+000	5.00000E-001	-9.33109E-004	8	...........	-327.56
	672	6.72	4.99226E-001	2.49850E-004	0.00000E+000	5.00000E-001	-9.18109E-004	8	...........	-327.56
	676	6.76	4.99214E-001	2.49851E-004	0.00000E+000	5.00000E-001	-9.13109E-004	8	...........	-327.56
	680	6.8	4.99213E-001	2.49850E-004	0.00000E+000	5.00000E-001	-9.16443E-004	8	...........	-327.56
	684	6.84	4.99217E-001	2.49852E-004	0.00000E+000	5.00000E-001	-9.11443E-004	8	...........	-327.56
	688	6.88	4.99202E-001	2.49852E-004	0.00000E+000	5.00000E-001	-9.24776E-004	8	...........	-327.56
	692	6.92	4.99215E-001	2.49851E-004	0.00000E+000	5.00000E-001	-9.03109E-004	8	...........	-327.56
	696	6.96	4.99222E-001	2.49854E-004	0.00000E+000	5.00000E-001	-9.38109E-004	8	...........	-327.56
	700	7	4.99220E-001	2.49851E-004	0.00000E+000	5.00000E-001	-9.33109E-004	8	...........	-327.56
	704	7.04	4.99227E-001	2.49854E-004	0.00000E+000	5.00000E-001	-9.33109E-004	8	...........	-327.56
	708	7.08	4.99222E-001	2.49851E-004	0.00000E+000	5.00000E-001	-9.23109E-004	8	...........	-327.56
	712	7.12	4.99227E-001	2.49854E-004	0.00000E+000	5.00000E-001	-9.19776E-004	8	...........	-327.56
	716	7.16	4.99221E-001	2.49850E-004	0.00000E+000	5.00000E-001	-9.16443E-004	8	...........	-327.56
	720	7.2	4.99214E-001	2.49852E-004	0.00000E+000	5.00000E-001	-9.19776E-004	8	...........	-327.56
	724	7.24	4.99212E-001	2.49851E-004	0.00000E+000	5.00000E-001	-9.11443E-004	8	...........	-327.56
	728	7.28	4.99224E-001	2.49854E-004	0.00000E+000	5.00000E-001	-9.01442E-004	8	...........	-327.56
	732	7.32	4.99217E-001	2.49851E-004	0.00000E+000	5.00000E-001	-9.14776E-004	8	...........	-327.56
	736	7.36	4.99226E-001	2.49851E-004	0.00000E+000	5.00000E-001	-9.36443E-004	8	...........	-327.56
	740	7.4	4.99221E-001	2.49851E-004	0.00000E+000	5.00000E-001	-9.18109E-004	8	...........	-327.56
	744	7.44	4.99225E-001	2.49854E-004	0.00000E+000	5.00000E-001	-9.09776E-004	8	...........	-327.56
	748	7.48	4.99232E-001	2.49854E-004	0.00000E+000	5.00000E-001	-8.99776E-004	8	...........	-327.56
	752	7.52	4.99212E-001	2.49855E-004	0.00000E+000	5.00000E-001	-8.99776E-004	8	...........	-327.56
	756	7.56	4.99217E-001	2.49853E-004	0.00000E+000	5.00000E-001	-9.13109E-004	8	...........	-327.56
	760	7.6	4.99212E-001	2.49852E-004	0.00000E+000	5.00000E-001	-9.11443E-004	8	...........	-327.56
	764	7.64	4.99212E-001	2.49855E-004	0.00000E+000	5.00000E-001	-9.08109E-004	8	...........	-327.56
	768	7.68	4.99226E-001	2.49854E-004	0.00000E+000	5.00000E-001	-9.13109E-004	8	...........	-327.56
	772	7.72	4.99214E-001	2.49853E-004	0.00000E+000	5.00000E-001	-9.06443E-004	8	...........	-327.56
	776	7.76	4.99220E-001	2.49855E-004	0.00000E+000	5.00000E-001	-9.08109E-004	8	...........	-327.56
	780	7.8	4.99233E-001	2.49858E-004	0.00000E+000	5.00000E-001	-9.28109E-004	8	...........	-327.56
	784	7.84	4.99225E-001	2.49857E-004	0.00000E+000	5.00000E-001	-9.14776E-004	8	...........	-327.56
	788	7.88	4.99226E-001	2.49857E-004	0.00000E+000	5.00000E-001	-9.08109E-004	8	...........	-327.56
	792	7.92	4.99229E-001	2.49855E-004	0.00000E+000	5.00000E-001	-9.16443E-004	8	...........	-327.56
	796	7.96	4.99222E-001	2.49857E-004	0.00000E+000	5.00000E-001	-9.33109E-004	8	...........	-327.56
	800	8	4.99227E-001	2.49857E-004	0.00000E+000	5.00000E-001	-8.93109E-004	8	...........	-327.56
	804	8.04	4.99244E-001	2.49854E-004	0.00000E+000	5.00000E-001	-9.08109E-004	8	...........	-327.56
	808	8.08	4.99222E-001	2.49856E-004	0.00000E+000	5.00000E-001	-9.16443E-004	8	...........	-327.56
	812	8.12	4.99222E-001	2.49856E-004	0.00000E+000	5.00000E-001	-9.09776E-004	8	...........	-327.56
	816	8.16	4.99219E-001	2.49858E-004	0.00000E+000	5.00000E-001	-9.06443E-004	8	...........	-327.56
	820	8.2	4.99220E-001	2.49856E-004	0.00000E+000	5.00000E-001	-8.98109E-004	8	...........	-327.56
	824	8.24	4.99217E-001	2.49854E-004	0.00000E+000	5.00000E-001	-9.23109E-004	8	...........	-327.56
	828	8.28	4.99220E-001	2.49853E-004	0.00000E+000	5.00000E-001	-9.23109E-004	8	...........	-327.56
	832	8.32	4.99225E-001	2.49854E-004	0.00000E+000	5.00000E-001	-9.19776E-004	8	...........	-327.56
	836	8.36	4.99201E-001	2.49850E-004	0.00000E+000	5.00000E-001	-9.03109E-004	8	...........	-327.56
	840	8.4	4.99221E-001	2.49856E-004	0.00000E+000	5.00000E-001	-9.16443E-004	8	...........	-327.56
	844	8.44	4.99222E-001	2.49851E-004	0.00000E+000	5.00000E-001	-9.06443E-004	8	...........	-327.56
	848	8.48	4.99201E-001	2.49852E-004	0.00000E+000	5.00000E-001	-9.18109E-004	8	...........	-327.56
	852	8.52	4.99212E-001	2.49850E-004	0.00000E+000	5.00000E-001	-9.24776E-004	8	...........	-327.56
	856	8.56	4.99232E-001	2.49857E-004	0.00000E+000	5.00000E-001	-9.04776E-004	8	...........	-327.56
	860	8.6	4.99214E-001	2.49851E-004	0.00000E+000	5.00000E-001	-9.13109E-004	8	...........	-327.56
	864	8.64	4.99221E-001	2.49853E-004	0.00000E+000	5.00000E-001	-9.09776E-004	8	...........	-327.56
	868	8.68	4.99210E-001	2.49854E-004	0.00000E+000	5.00000E-001	-9.23109E-004	8	...........	-327.56
	872	8.72	4.99214E-001	2.49852E-004	0.00000E+000	5.00000E-001	-9.08109E-004	8	...........	-327.56
	876	8.76	4.99221E-001	2.49853E-004	0.00000E+000	5.00000E-001	-8.99776E-004	8	...........	-327.56
	880	8.8	4.99230E-001	2.49848E-004	0.00000E+000	5.00000E-001	-9.26443E-004	8	...........	-327.56
	884	8.84	4.99213E-001	2.49853E-004	0.00000E+000	5.00000E-001	-9.31443E-004	8	...........	-327.56
	888	8.88	4.99217E-001	2.49850E-004	0.00000E+000	5.00000E-001	-9.29776E-004	8	...........	-327.56
	892	8.92	4.99216E-001	2.49853E-004	0.00000E+000	5.00000E-001	-9.16443E-004	8	...........	-327.56
	896	8.96	4.99232E-001	2.49854E-004	0.00000E+000	5.00000E-001	-8.91443E-004	8	...........	-327.56
	900	9	4.99212E-001	2.49853E-004	0.00000E+000	5.00000E-001	-9.31443E-004	8	...........	-327.56
	904	9.04	4.99226E-001	2.49853E-004	0.00000E+000	5.00000E-001	-9.21443E-004	8	...........	-327.56
	908	9.08	4.99222E-001	2.49857E-004	0.00000E+000	5.00000E-001	-9.23109E-004	8	...........	-327.56
	912	9.12	4.99227E-001	2.49853E-004	0.00000E+000	5.00000E-001	-9.14776E-004	8	...........	-327.56
	916	9.16	4.99215E-001	2.49855E-004	0.00000E+000	5.00000E-001	-9.21443E-004	8	...........	-327.56
	920	9.2	4.99214E-001	2.49854E-004	0.00000E+000	5.00000E-001	-9.04776E-004	8	...........	-327.56
	924	9.24	4.99216E-001	2.49853E-004	0.00000E+000	5.00000E-001	-9.31443E-004	8	...........	-327.56
	928	9.28	4.99213E-001	2.49855E-004	0.00000E+000	5.00000E-001	-9.23109E-004	8	...........	-327.56
	932	9.32	4.99225E-001	2.49855E-004	0.00000E+000	5.00000E-001	-9.34776E-004	8	...........	-327.56
	936	9.36	4.99206E-001	2.49855E-004	0.00000E+000	5.00000E-001	-9.41443E-004	8	...........	-327.56
	940	9.4	4.99207E-001	2.49854E-004	0.00000E+000	5.00000E-001	-9.13109E-004	8	...........	-327.56
	944	9.44	4.99221E-001	2.49852E-004	0.00000E+000	5.00000E-001	-9.11443E-004	8	...........	-327.56
	948	9.48	4.99227E-001	2.49853E-004	0.00000E+000	5.00000E-001	-9.19776E-004	8	...........	-327.56
	952	9.52	4.99214E-001	2.49854E-004	0.00000E+000	5.00000E-001	-9.06443E-004	8	...........	-327.56
	956	9.56	4.99219E-001	2.49848E-004	0.00000E+000	5.00000E-001	-9.06443E-004	8	...........	-327.56
	960	9.6	4.99232E-001	2.49852E-004	0.00000E+000	5.00000E-001	-9.11443E-004	8	...........	-327.56
	964	9.64	4.99207E-001	2.49853E-004	0.00000E+000	5.00000E-001	-9.18109E-004	8	...........	-327.56
	968	9.68	4.99220E-001	2.49853E-004	0.00000E+000	5.00000E-001	-9.19776E-004	8	...........	-327.56
	972	9.72	4.99207E-001	2.49850E-004	0.00000E+000	5.00000E-001	-9.13109E-004	8	...........	-327.56
	976	9.76	4.99227E-001	2.49854E-004	0.00000E+000	5.00000E-001	-9.23109E-004	8	...........	-327.56
	980	9.8	4.99220E-001	2.49857E-004	0.00000E+000	5.00000E-001	-9.14776E-004	8	...........	-327.56
	984	9.84	4.99221E-001	2.49852E-004	0.00000E+000	5.00000E-001	-9.21443E-004	8	...........	-327.56
	988	9.88	4.99211E-001	2.49851E-004	0.00000E+000	5.00000E-001	-9.33109E-004	8	...........	-327.56
	992	9.92	4.99206E-001	2.49853E-004	0.00000E+000	5.00000E-001	-9.09776E-004	8	...........	-327.56
	996	9.96	4.99212E-001	2.49851E-004	0.00000E+000	5.00000E-001	-9.31443E-004	8	...........	-327.56
	1000	10	4.99214E-001	2.49850E-004	0.00000E+000	5.00000E-001	-9.11443E-004	8	...........	-327.56
	1004	10.04	4.99217E-001	2.49852E-004	0.00000E+000	5.00000E-001	-9.28109E-004	8	...........	-327.56
	1008	10.08	4.99213E-001	2.49850E-004	0.00000E+000	5.00000E-001	-9.29776E-004	8	...........	-327.56
	1012	10.12	4.99221E-001	2.49854E-004	0.00000E+000	5.00000E-001	-9.08109E-004	8	...........	-327.56
	1016	10.16	4.99222E-001	2.49852E-004	0.00000E+000	5.00000E-001	-9.24776E-004	8	...........	-327.56
	1020	10.2	4.99219E-001	2.49853E-004	0.00000E+000	5.00000E-001	-9.19776E-004	8	...........	-327.56
	1024	10.24	4.99222E-001	2.49851E-004	0.00000E+000	5.00000E-001	-9.26443E-004	8	...........	-327.56
	1028	10.28	4.99222E-001	2.49855E-004	0.00000E+000	5.00000E-001	-8.99776E-004	8	...........	-327.56
	1032	10.32	4.99212E-001	2.49854E-004	0.00000E+000	5.00000E-001	-9.16443E-004	8	...........	-327.56
	1036	10.36	4.99229E-001	2.49854E-004	0.00000E+000	5.00000E-001	-9.31443E-004	8	...........	-327.56
	1040	10.4	4.99216E-001	2.49850E-004	0.00000E+000	5.00000E-001	-9.03109E-004	8	...........	-327.56
	1044	10.44	4.99218E-001	2.49853E-004	0.00000E+000	5.00000E-001	-9.11443E-004	8	...........	-327.56
	1048	10.48	4.99236E-001	2.49852E-004	0.00000E+000	5.00000E-001	-9.03109E-004	8	...........	-327.56
	1052	10.52	4.99222E-001	2.49852E-004	0.00000E+000	5.00000E-001	-9.33109E-004	8	...........	-327.56
	1056	10.56	4.99230E-001	2.49853E-004	0.00000E+000	5.00000E-001	-9.21443E-004	8	...........	-327.56
	1060	10.6	4.99207E-001	2.49851E-004	0.00000E+000	5.00000E-001	-9.06443E-004	8	...........	-327.56
	1064	10.64	4.99212E-001	2.49850E-004	0.00000E+000	5.00000E-001	-9.14776E-004	8	...........	-327.56
	1068	10.68	4.99200E-001	2.49850E-004	0.00000E+000	5.00000E-001	-9.13109E-004	8	...........	-327.56
	1072	10.72	4.99220E-001	2.49851E-004	0.00000E+000	5.00000E-001	-9.14776E-004	8	...........	-327.56
	1076	10.76	4.99227E-001	2.49856E-004	0.00000E+000	5.00000E-001	-9.39776E-004	8	...........	-327.56
	1080	10.8	4.99219E-001	2.49858E-004	0.00000E+000	5.00000E-001	-8.96443E-004	8	...........	-327.56
	1084	10.84	4.99215E-001	2.49853E-004	0.00000E+000	5.00000E-001	-9.34776E-004	8	...........	-327.56
	1088	10.88	4.99234E-001	2.49856E-004	0.00000E+000	5.00000E-001	-9.23109E-004	8	...........	-327.56
	1092	10.92	4.99212E-001	2.49853E-004	0.00000E+000	5.00000E-001	-9.04776E-004	8	...........	-327.56
	1096	10.96	4.99223E-001	2.49850E-004	0.00000E+000	5.00000E-001	-9.11443E-004	8	...........	-327.56
	1100	11	4.99223E-001	2.49852E-004	0.00000E+000	5.00000E-001	-9.18109E-004	8	...........	-327.56
	1104	11.04	4.99207E-001	2.49853E-004	0.00000E+000	5.00000E-001	-9.36443E-004	8	...........	-327.56
	1108	11.08	4.99204E-001	2.49851E-004	0.00000E+000	5.00000E-001	-9.18109E-004	8	...........	-327.56
	1112	11.12	4.99201E-001	2.49855E-004	0.00000E+000	5.00000E-001	-9.09776E-004	8	...........	-327.56
	1116	11.16	4.99209E-001	2.49854E-004	0.00000E+000	5.00000E-001	-9.23109E-004	8	...........	-327.56
	1120	11.2	4.99216E-001	2.49853E-004	0.00000E+000	5.00000E-001	-9.23109E-004	8	...........	-327.56
	1124	11.24	4.99204E-001	2.49853E-004	0.00000E+000	5.00000E-001	-9.18109E-004	8	...........	-327.56
	1128	11.28	4.99217E-001	2.49853E-004	0.00000E+000	5.00000E-001	-9.09776E-004	8	...........	-327.56
	1132	11.32	4.99215E-001	2.49855E-004	0.00000E+000	5.00000E-001	-9.04776E-004	8	...........	-327.56
	1136	11.36	4.99227E-001	2.49857E-004	0.00000E+000	5.00000E-001	-9.11443E-004	8	...........	-327.56
	1140	11.4	4.99207E-001	2.49855E-004	0.00000E+000	5.00000E-001	-9.08109E-004	8	...........	-327.56
	1144	11.44	4.99215E-001	2.49857E-004	0.00000E+000	5.00000E-001	-9.34776E-004	8	...........	-327.56
	1148	11.48	4.99217E-001	2.49855E-004	0.00000E+000	5.00000E-001	-9.24776E-004	8	...........	-327.56
	1152	11.52	4.99212E-001	2.49853E-004	0.00000E+000	5.00000E-001	-8.96443E-004	8	...........	-327.56
	1156	11.56	4.99210E-001	2.49852E-004	0.00000E+000	5.00000E-001	-9.01442E-004	8	...........	-327.56
	1160	11.6	4.99232E-001	2.49853E-004	0.00000E+000	5.00000E-001	-9.21443E-004	8	...........	-327.56
	1164	11.64	4.99221E-001	2.49850E-004	0.00000E+000	5.00000E-001	-9.06443E-004	8	...........	-327.56
	1168	11.68	4.99217E-001	2.49853E-004	0.00000E+000	5.00000E-001	-9.06443E-004	8	...........	-327.56
	1172	11.72	4.99206E-001	2.49852E-004	0.00000E+000	5.00000E-001	-9.16443E-004	8	...........	-327.56
	1176	11.76	4.99207E-001	2.49851E-004	0.00000E+000	5.00000E-001	-9.14776E-004	8	...........	-327.56
	1180	11.8	4.99212E-001	2.49850E-004	0.00000E+000	5.00000E-001	-9.21443E-004	8	...........	-327.56
	1184	11.84	4.99207E-001	2.49855E-004	0.00000E+000	5.00000E-001	-9.14776E-004	8	...........	-327.56
	1188	11.88	4.99223E-001	2.49855E-004	0.00000E+000	5.00000E-001	-9.14776E-004	8	...........	-327.56
	1192	11.92	4.99226E-001	2.49854E-004	0.00000E+000	5.00000E-001	-9.08109E-004	8	...........	-327.56
	1196	11.96	4.99227E-001	2.49856E-004	0.00000E+000	5.00000E-001	-9.24776E-004	8	...........	-327.56
	1200	12	4.99228E-001	2.49856E-004	0.00000E+000	5.00000E-001	-9.19776E-004	8	...........	-327.56
	1204	12.04	4.99205E-001	2.49851E-004	0.00000E+000	5.00000E-001	-9.19776E-004	8	...........	-327.56
	1208	12.08	4.99203E-001	2.49855E-004	0.00000E+000	5.00000E-001	-9.18109E-004	8	...........	-327.56
	1212	12.12	4.99220E-001	2.49856E-004	0.00000E+000	5.00000E-001	-9.14776E-004	8	...........	-327.56
	1216	12.16	4.99212E-001	2.49856E-004	0.00000E+000	5.00000E-001	-8.98109E-004	8	...........	-327.56
	1220	12.2	4.99218E-001	2.49855E-004	0.00000E+000	5.00000E-001	-9.31443E-004	8	...........	-327.56
	1224	12.24	4.99221E-001	2.49854E-004	0.00000E+000	5.00000E-001	-9.19776E-004	8	...........	-327.56
	1228	12.28	4.99223E-001	2.49857E-004	0.00000E+000	5.00000E-001	-9.03109E-004	8	...........	-327.56
	1232	12.32	4.99226E-001	2.49854E-004	0.00000E+000	5.00000E-001	-9.24776E-004	8	...........	-327.56
	1236	12.36	4.99229E-001	2.49853E-004	0.00000E+000	5.00000E-001	-9.26443E-004	8	...........	-327.56
	1240	12.4	4.99213E-001	2.49853E-004	0.00000E+000	5.00000E-001	-9.23109E-004	8	...........	-327.56
	1244	12.44	4.99223E-001	2.49855E-004	0.00000E+000	5.00000E-001	-9.14776E-004	8	...........	-327.56
	1248	12.48	4.99220E-001	2.49853E-004	0.00000E+000	5.00000E-001	-9.29776E-004	8	...........	-327.56
	1252	12.52	4.99208E-001	2.49851E-004	0.00000E+000	5.00000E-001	-9.11443E-004	8	...........	-327.56
	1256	12.56	4.99221E-001	2.49852E-004	0.00000E+000	5.00000E-001	-9.31443E-004	8	...........	-327.56
	1260	12.6	4.99243E-001	2.49854E-004	0.00000E+000	5.00000E-001	-9.09776E-004	8	...........	-327.56
	1264	12.64	4.99209E-001	2.49854E-004	0.00000E+000	5.00000E-001	-9.14776E-004	8	...........	-327.56
	1268	12.68	4.99219E-001	2.49857E-004	0.00000E+000	5.00000E-001	-9.21443E-004	8	...........	-327.56
	1272	12.72	4.99227E-001	2.49856E-004	0.00000E+000	5.00000E-001	-9.16443E-004	8	...........	-327.56
	1276	12.76	4.99214E-001	2.49854E-004	0.00000E+000	5.00000E-001	-9.16443E-004	8	...........	-327.56
	1280	12.8	4.99203E-001	2.49850E-004	0.00000E+000	5.00000E-001	-9.14776E-004	8	...........	-327.56
	1284	12.84	4.99221E-001	2.49851E-004	0.00000E+000	5.00000E-001	-9.01442E-004	8	...........	-327.56
	1288	12.88	4.99219E-001	2.49854E-004	0.00000E+000	5.00000E-001	-9.03109E-004	8	...........	-327.56
	1292	12.92	4.99221E-001	2.49854E-004	0.00000E+000	5.00000E-001	-9.08109E-004	8	...........	-327.56
	1296	12.96	4.99208E-001	2.49849E-004	0.00000E+000	5.00000E-001	-9.19776E-004	8	...........	-327.56
	1300	13	4.99217E-001	2.49850E-004	0.00000E+000	5.00000E-001	-9.23109E-004	8	...........	-327.56
	1304	13.04	4.99216E-001	2.49854E-004	0.00000E+000	5.00000E-001	-8.99776E-004	8	...........	-327.56
	1308	13.08	4.99211E-001	2.49858E-004	0.00000E+000	5.00000E-001	-9.16443E-004	8	...........	-327.56
	1312	13.12	4.99216E-001	2.49855E-004	0.00000E+000	5.00000E-001	-9.13109E-004	8	...........	-327.56
	1316	13.16	4.99210E-001	2.49853E-004	0.00000E+000	5.00000E-001	-9.26443E-004	8	...........	-327.56
	1320	13.2	4.99213E-001	2.49852E-004	0.00000E+000	5.00000E-001	-9.23109E-004	8	...........	-327.56
	1324	13.24	4.99221E-001	2.49852E-004	0.00000E+000	5.00000E-001	-9.13109E-004	8	...........	-327.56
	1328	13.28	4.99203E-001	2.49854E-004	0.00000E+000	5.00000E-001	-9.11443E-004	8	...........	-327.56
	1332	13.32	4.99208E-001	2.49851E-004	0.00000E+000	5.00000E-001	-9.03109E-004	8	...........	-327.56
	1336	13.36	4.99225E-001	2.49852E-004	0.00000E+000	5.00000E-001	-9.13109E-004	8	...........	-327.56
	1340	13.4	4.99205E-001	2.49849E-004	0.00000E+000	5.00000E-001	-9.06443E-004	8	...........	-327.56
	1344	13.44	4.99216E-001	2.49860E-004	0.00000E+000	5.00000E-001	-9.03109E-004	8	...........	-327.56
	1348	13.48	4.99207E-001	2.49855E-004	0.00000E+000	5.00000E-001	-9.16443E-004	8	...........	-327.56
	1352	13.52	4.99220E-001	2.49851E-004	0.00000E+000	5.00000E-001	-9.26443E-004	8	...........	-327.56
	1356	13.56	4.99213E-001	2.49856E-004	0.00000E+000	5.00000E-001	-9.03109E-004	8	...........	-327.56
	1360	13.6	4.99215E-001	2.49855E-004	0.00000E+000	5.00000E-001	-9.23109E-004	8	...........	-327.56
	1364	13.64	4.99215E-001	2.49855E-004	0.00000E+000	5.00000E-001	-9.39776E-004	8	...........	-327.56
	1368	13.68	4.99224E-001	2.49857E-004	0.00000E+000	5.00000E-001	-9.14776E-004	8	...........	-327.56
	1372	13.72	4.99203E-001	2.49856E-004	0.00000E+000	5.00000E-001	-8.99776E-004	8	...........	-327.56
	1376	13.76	4.99216E-001	2.49856E-004	0.00000E+000	5.00000E-001	-8.98109E-004	8	...........	-327.56
	1380	13.8	4.99216E-001	2.49855E-004	0.00000E+000	5.00000E-001	-9.13109E-004	8	...........	-327.56
	1384	13.84	4.99218E-001	2.49853E-004	0.00000E+000	5.00000E-001	-9.13109E-004	8	...........	-327.56
	1388	13.88	4.99212E-001	2.49856E-004	0.00000E+000	5.00000E-001	-9.03109E-004	8	...........	-327.56
	1392	13.92	4.99212E-001	2.49860E-004	0.00000E+000	5.00000E-001	-9.13109E-004	8	...........	-327.56
	1396	13.96	4.99239E-001	2.49861E-004	0.00000E+000	5.00000E-001	-8.96443E-004	8	...........	-327.56
	1400	14	4.99224E-001	2.49859E-004	0.00000E+000	5.00000E-001	-9.14776E-004	8	...........	-327.56
	1404	14.04	4.99222E-001	2.49859E-004	0.00000E+000	5.00000E-001	-9.29776E-004	8	...........	-327.56
	1408	14.08	4.99216E-001	2.49860E-004	0.00000E+000	5.00000E-001	-9.04776E-004	8	...........	-327.56
	1412	14.12	4.99234E-001	2.49856E-004	0.00000E+000	5.00000E-001	-9.33109E-004	8	...........	-327.56
	1416	14.16	4.99234E-001	2.49858E-004	0.00000E+000	5.00000E-001	-9.08109E-004	8	...........	-327.56
	1420	14.2	4.99204E-001	2.49855E-004	0.00000E+000	5.00000E-001	-9.24776E-004	8	...........	-327.56
	1424	14.24	4.99209E-001	2.49854E-004	0.00000E+000	5.00000E-001	-9.09776E-004	8	...........	-327.56
	1428	14.28	4.99208E-001	2.49854E-004	0.00000E+000	5.00000E-001	-9.28109E-004	8	...........	-327.56
	1432	14.32	4.99218E-001	2.49857E-004	0.00000E+000	5.00000E-001	-9.03109E-004	8	...........	-327.56
	1436	14.36	4.99216E-001	2.49857E-004	0.00000E+000	5.00000E-001	-9.18109E-004	8	...........	-327.56
	1440	14.4	4.99224E-001	2.49855E-004	0.00000E+000	5.00000E-001	-9.08109E-004	8	...........	-327.56
	1444	14.44	4.99216E-001	2.49853E-004	0.00000E+000	5.00000E-001	-9.18109E-004	8	...........	-327.56
	1448	14.48	4.99215E-001	2.49855E-004	0.00000E+000	5.00000E-001	-9.13109E-004	8	...........	-327.56
	1452	14.52	4.99226E-001	2.49855E-004	0.00000E+000	5.00000E-001	-8.99776E-004	8	...........	-327.56
	1456	14.56	4.99218E-001	2.49856E-004	0.00000E+000	5.00000E-001	-9.31443E-004	8	...........	-327.56
	1460	14.6	4.99208E-001	2.49859E-004	0.00000E+000	5.00000E-001	-9.21443E-004	8	...........	-327.56
	1464	14.64	4.99225E-001	2.49857E-004	0.00000E+000	5.00000E-001	-9.18109E-004	8	...........	-327.56
	1468	14.68	4.99207E-001	2.49851E-004	0.00000E+000	5.00000E-001	-9.18109E-004	8	...........	-327.56
	1472	14.72	4.99228E-001	2.49853E-004	0.00000E+000	5.00000E-001	-9.16443E-004	8	...........	-327.56
	1476	14.76	4.99223E-001	2.49858E-004	0.00000E+000	5.00000E-001	-9.01442E-004	8	...........	-327.56
	1480	14.8	4.99214E-001	2.49854E-004	0.00000E+000	5.00000E-001	-9.03109E-004	8	...........	-327.56
	1484	14.84	4.99206E-001	2.49855E-004	0.00000E+000	5.00000E-001	-9.34776E-004	8	...........	-327.56
	1488	14.88	4.99214E-001	2.49855E-004	0.00000E+000	5.00000E-001	-9.19776E-004	8	...........	-327.56
	1492	14.92	4.99228E-001	2.49859E-004	0.00000E+000	5.00000E-001	-9.13109E-004	8	...........	-327.56
	1496	14.96	4.99211E-001	2.49854E-004	0.00000E+000	5.00000E-001	-9.18109E-004	8	...........	-327.56
	1500	15	4.99224E-001	2.49857E-004	0.00000E+000	5.00000E-001	-9.14776E-004	8	...........	-327.56
	1504	15.04	4.99221E-001	2.49856E-004	0.00000E+000	5.00000E-001	-9.49776E-004	8	...........	-327.56
	1508	15.08	4.99230E-001	2.49857E-004	0.00000E+000	5.00000E-001	-9.11443E-004	8	...........	-327.56
	1512	15.12	4.99220E-001	2.49856E-004	0.00000E+000	5.00000E-001	-9.26443E-004	8	...........	-327.56
	1516	15.16	4.99212E-001	2.49853E-004	0.00000E+000	5.00000E-001	-9.34776E-004	8	...........	-327.56
	1520	15.2	4.99224E-001	2.49856E-004	0.00000E+000	5.00000E-001	-9.14776E-004	8	...........	-327.56
	1524	15.24	4.99219E-001	2.49856E-004	0.00000E+000	5.00000E-001	-9.28109E-004	8	...........	-327.56
	1528	15.28	4.99217E-001	2.49852E-004	0.00000E+000	5.00000E-001	-8.88109E-004	8	...........	-327.56
	1532	15.32	4.99224E-001	2.49855E-004	0.00000E+000	5.00000E-001	-9.18109E-004	8	...........	-327.56
	1536	15.36	4.99229E-001	2.49856E-004	0.00000E+000	5.00000E-001	-8.99776E-004	8	...........	-327.56
	1540	15.4	4.99212E-001	2.49857E-004	0.00000E+000	5.00000E-001	-9.16443E-004	8	...........	-327.56
	1544	15.44	4.99212E-001	2.49856E-004	0.00000E+000	5.00000E-001	-9.16443E-004	8	...........	-327.56
	1548	15.48	4.99198E-001	2.49854E-004	0.00000E+000	5.00000E-001	-8.94776E-004	8	...........	-327.56
	1552	15.52	4.99236E-001	2.49857E-004	0.00000E+000	5.00000E-001	-9.21443E-004	8	...........	-327.56
	1556	15.56	4.99217E-001	2.49851E-004	0.00000E+000	5.00000E-001	-9.01442E-004	8	...........	-327.56
	1560	15.6	4.99212E-001	2.49855E-004	0.00000E+000	5.00000E-001	-9.04776E-004	8	...........	-327.56
	1564	15.64	4.99209E-001	2.49854E-004	0.00000E+000	5.00000E-001	-9.04776E-004	8	...........	-327.56
	1568	15.68	4.99222E-001	2.49857E-004	0.00000E+000	5.00000E-001	-9.21443E-004	8	...........	-327.56
	1572	15.72	4.99212E-001	2.49856E-004	0.00000E+000	5.00000E-001	-9.26443E-004	8	...........	-327.56
	1576	15.76	4.99222E-001	2.49856E-004	0.00000E+000	5.00000E-001	-9.29776E-004	8	...........	-327.56
	1580	15.8	4.99232E-001	2.49861E-004	0.00000E+000	5.00000E-001	-9.13109E-004	8	...........	-327.56
	1584	15.84	4.99213E-001	2.49858E-004	0.00000E+000	5.00000E-001	-9.16443E-004	8	...........	-327.56
	1588	15.88	4.99232E-001	2.49859E-004	0.00000E+000	5.00000E-001	-9.19776E-004	8	...........	-327.56
	1592	15.92	4.99228E-001	2.49861E-004	0.00000E+000	5.00000E-001	-9.16443E-004	8	...........	-327.56
	1596	15.96	4.99230E-001	2.49860E-004	0.00000E+000	5.00000E-001	-9.39776E-004	8	...........	-327.56
	1600	16	4.99225E-001	2.49856E-004	0.00000E+000	5.00000E-001	-9.14776E-004	8	...........	-327.56
	1604	16.04	4.99221E-001	2.49858E-004	0.00000E+000	5.00000E-001	-9.24776E-004	8	...........	-327.56
	1608	16.08	4.99239E-001	2.49855E-004	0.00000E+000	5.00000E-001	-9.13109E-004	8	...........	-327.56
	1612	16.12	4.99216E-001	2.49856E-004	0.00000E+000	5.00000E-001	-9.28109E-004	8	...........	-327.56
	1616	16.16	4.99220E-001	2.49855E-004	0.00000E+000	5.00000E-001	-9.11443E-004	8	...........	-327.56
	1620	16.2	4.99202E-001	2.49856E-004	0.00000E+000	5.00000E-001	-9.19776E-004	8	...........	-327.56
	1624	16.24	4.99208E-001	2.49860E-004	0.00000E+000	5.00000E-001	-9.03109E-004	8	...........	-327.56
	1628	16.28	4.99208E-001	2.49858E-004	0.00000E+000	5.00000E-001	-9.14776E-004	8	...........	-327.56
	1632	16.32	4.99208E-001	2.49856E-004	0.00000E+000	5.00000E-001	-9.03109E-004	8	...........	-327.56
	1636	16.36	4.99229E-001	2.49858E-004	0.00000E+000	5.00000E-001	-8.99776E-004	8	...........	-327.56
	1640	16.4	4.99221E-001	2.49860E-004	0.00000E+000	5.00000E-001	-9.18109E-004	8	...........	-327.56
	1644	16.44	4.99227E-001	2.49860E-004	0.00000E+000	5.00000E-001	-9.31443E-004	8	...........	-327.56
	1648	16.48	4.99217E-001	2.49859E-004	0.00000E+000	5.00000E-001	-9.04776E-004	8	...........	-327.56
	1652	16.52	4.99221E-001	2.49856E-004	0.00000E+000	5.00000E-001	-9.19776E-004	8	...........	-327.56
	1656	16.56	4.99204E-001	2.49856E-004	0.00000E+000	5.00000E-001	-9.26443E-004	8	...........	-327.56
	1660	16.6	4.99216E-001	2.49859E-004	0.00000E+000	5.00000E-001	-9.19776E-004	8	...........	-327.56
	1664	16.64	4.99218E-001	2.49859E-004	0.00000E+000	5.00000E-001	-9.33109E-004	8	...........	-327.56
	1668	16.68	4.99222E-001	2.49858E-004	0.00000E+000	5.00000E-001	-9.19776E-004	8	...........	-327.56
	1672	16.72	4.99222E-001	2.49857E-004	0.00000E+000	5.00000E-001	-8.99776E-004	8	...........	-327.56
	1676	16.76	4.99223E-001	2.49859E-004	0.00000E+000	5.00000E-001	-9.24776E-004	8	...........	-327.56
	1680	16.8	4.99220E-001	2.49857E-004	0.00000E+000	5.00000E-001	-9.29776E-004	8	...........	-327.56
	1684	16.84	4.99218E-001	2.49857E-004	0.00000E+000	5.00000E-001	-9.18109E-004	8	...........	-327.56
	1688	16.88	4.99209E-001	2.49859E-004	0.00000E+000	5.00000E-001	-9.09776E-004	8	...........	-327.56
	1692	16.92	4.99226E-001	2.49862E-004	0.00000E+000	5.00000E-001	-9.11443E-004	8	...........	-327.56
	1696	16.96	4.99226E-001	2.49860E-004	0.00000E+000	5.00000E-001	-9.18109E-004	8	...........	-327.56
	1700	17	4.99211E-001	2.49858E-004	0.00000E+000	5.00000E-001	-9.24776E-004	8	...........	-327.56
	1704	17.04	4.99221E-001	2.49856E-004	0.00000E+000	5.00000E-001	-9.11443E-004	8	...........	-327.56
	1708	17.08	4.99231E-001	2.49859E-004	0.00000E+000	5.00000E-001	-9.19776E-004	8	...........	-327.56
	1712	17.12	4.99223E-001	2.49859E-004	0.00000E+000	5.00000E-001	-9.11443E-004	8	...........	-327.56
	1716	17.16	4.99233E-001	2.49856E-004	0.00000E+000	5.00000E-001	-9.41443E-004	8	...........	-327.56
	1720	17.2	4.99213E-001	2.49856E-004	0.00000E+000	5.00000E-001	-9.16443E-004	8	...........	-327.56
	1724	17.24	4.99222E-001	2.49859E-004	0.00000E+000	5.00000E-001	-9.03109E-004	8	...........	-327.56
	1728	17.28	4.99216E-001	2.49857E-004	0.00000E+000	5.00000E-001	-9.33109E-004	8	...........	-327.56
	1732	17.32	4.99208E-001	2.49858E-004	0.00000E+000	5.00000E-001	-9.44776E-004	8	...........	-327.56
	1736	17.36	4.99212E-001	2.49858E-004	0.00000E+000	5.00000E-001	-9.21443E-004	8	...........	-327.56
	1740	17.4	4.99216E-001	2.49856E-004	0.00000E+000	5.00000E-001	-9.38109E-004	8	...........	-327.56
	1744	17.44	4.99205E-001	2.49857E-004	0.00000E+000	5.00000E-001	-9.21443E-004	8	...........	-327.56
	1748	17.48	4.99226E-001	2.49860E-004	0.00000E+000	5.00000E-001	-9.16443E-004	8	...........	-327.56
	1752	17.52	4.99223E-001	2.49862E-004	0.00000E+000	5.00000E-001	-8.99776E-004	8	...........	-327.56
	1756	17.56	4.99215E-001	2.49855E-004	0.00000E+000	5.00000E-001	-9.23109E-004	8	...........	-327.56
	1760	17.6	4.99212E-001	2.49858E-004	0.00000E+000	5.00000E-001	-9.11443E-004	8	...........	-327.56
	1764	17.64	4.99226E-001	2.49859E-004	0.00000E+000	5.00000E-001	-9.44776E-004	8	...........	-327.56
	1768	17.68	4.99216E-001	2.49856E-004	0.00000E+000	5.00000E-001	-9.16443E-004	8	...........	-327.56
	1772	17.72	4.99218E-001	2.49856E-004	0.00000E+000	5.00000E-001	-9.33109E-004	8	...........	-327.56
	1776	17.76	4.99221E-001	2.49857E-004	0.00000E+000	5.00000E-001	-9.21443E-004	8	...........	-327.56
	1780	17.8	4.99219E-001	2.49858E-004	0.00000E+000	5.00000E-001	-9.38109E-004	8	...........	-327.56
	1784	17.84	4.99224E-001	2.49857E-004	0.00000E+000	5.00000E-001	-9.38109E-004	8	...........	-327.56
	1788	17.88	4.99216E-001	2.49857E-004	0.00000E+000	5.00000E-001	-9.24776E-004	8	...........	-327.56
	1792	17.92	4.99227E-001	2.49858E-004	0.00000E+000	5.00000E-001	-9.09776E-004	8	...........	-327.56
	1796	17.96	4.99216E-001	2.49858E-004	0.00000E+000	5.00000E-001	-9.19776E-004	8	...........	-327.56
	1800	18	4.99234E-001	2.49856E-004	0.00000E+000	5.00000E-001	-9.16443E-004	8	...........	-327.56
	1804	18.04	4.99210E-001	2.49855E-004	0.00000E+000	5.00000E-001	-9.14776E-004	8	...........	-327.56
	1808	18.08	4.99214E-001	2.49857E-004	0.00000E+000	5.00000E-001	-9.23109E-004	8	...........	-327.56
	1812	18.12	4.99221E-001	2.49857E-004	0.00000E+000	5.00000E-001	-9.08109E-004	8	...........	-327.56
	1816	18.16	4.99236E-001	2.49856E-004	0.00000E+000	5.00000E-001	-9.09776E-004	8	...........	-327.56
	1820	18.2	4.99213E-001	2.49856E-004	0.00000E+000	5.00000E-001	-9.28109E-004	8	...........	-327.56
	1824	18.24	4.99217E-001	2.49857E-004	0.00000E+000	5.00000E-001	-9.16443E-004	8	...........	-327.56
	1828	18.28	4.99226E-001	2.49861E-004	0.00000E+000	5.00000E-001	-9.23109E-004	8	...........	-327.56
	1832	18.32	4.99231E-001	2.49857E-004	0.00000E+000	5.00000E-001	-9.14776E-004	8	...........	-327.56
	1836	18.36	4.99216E-001	2.49861E-004	0.00000E+000	5.00000E-001	-9.01442E-004	8	...........	-327.56
	1840	18.4	4.99227E-001	2.49859E-004	0.00000E+000	5.00000E-001	-9.01442E-004	8	...........	-327.56
	1844	18.44	4.99207E-001	2.49859E-004	0.00000E+000	5.00000E-001	-9.24776E-004	8	...........	-327.56
	1848	18.48	4.99226E-001	2.49860E-004	0.00000E+000	5.00000E-001	-9.08109E-004	8	...........	-327.56
	1852	18.52	4.99236E-001	2.49860E-004	0.00000E+000	5.00000E-001	-9.19776E-004	8	...........	-327.56
	1856	18.56	4.99222E-001	2.49856E-004	0.00000E+000	5.00000E-001	-9.29776E-004	8	...........	-327.56
	1860	18.6	4.99212E-001	2.49858E-004	0.00000E+000	5.00000E-001	-9.08109E-004	8	...........	-327.56
	1864	18.64	4.99238E-001	2.49861E-004	0.00000E+000	5.00000E-001	-9.43109E-004	8	...........	-327.56
	1868	18.68	4.99218E-001	2.49860E-004	0.00000E+000	5.00000E-001	-9.28109E-004	8	...........	-327.56
	1872	18.72	4.99218E-001	2.49858E-004	0.00000E+000	5.00000E-001	-9.09776E-004	8	...........	-327.56
	1876	18.76	4.99223E-001	2.49856E-004	0.00000E+000	5.00000E-001	-9.09776E-004	8	...........	-327.56
	1880	18.8	4.99212E-001	2.49857E-004	0.00000E+000	5.00000E-001	-9.09776E-004	8	...........	-327.56
	1884	18.84	4.99227E-001	2.49861E-004	0.00000E+000	5.00000E-001	-9.26443E-004	8	...........	-327.56
	1888	18.88	4.99220E-001	2.49859E-004	0.00000E+000	5.00000E-001	-9.21443E-004	8	...........	-327.56
	1892	18.92	4.99226E-001	2.49858E-004	0.00000E+000	5.00000E-001	-9.41443E-004	8	...........	-327.56
	1896	18.96	4.99210E-001	2.49858E-004	0.00000E+000	5.00000E-001	-9.14776E-004	8	...........	-327.56
	1900	19	4.99216E-001	2.49855E-004	0.00000E+000	5.00000E-001	-9.23109E-004	8	...........	-327.56
	1904	19.04	4.99224E-001	2.49854E-004	0.00000E+000	5.00000E-001	-9.03109E-004	8	...........	-327.56
	1908	19.08	4.99198E-001	2.49855E-004	0.00000E+000	5.00000E-001	-9.26443E-004	8	...........	-327.56
	1912	19.12	4.99225E-001	2.49858E-004	0.00000E+000	5.00000E-001	-9.29776E-004	8	...........	-327.56
	1916	19.16	4.99216E-001	2.49857E-004	0.00000E+000	5.00000E-001	-8.88109E-004	8	...........	-327.56
	1920	19.2	4.99225E-001	2.49857E-004	0.00000E+000	5.00000E-001	-9.21443E-004	8	...........	-327.56
	1924	19.24	4.99212E-001	2.49860E-004	0.00000E+000	5.00000E-001	-9.39776E-004	8	...........	-327.56
	1928	19.28	4.99224E-001	2.49860E-004	0.00000E+000	5.00000E-001	-9.26443E-004	8	...........	-327.56
	1932	19.32	4.99218E-001	2.49860E-004	0.00000E+000	5.00000E-001	-9.34776E-004	8	...........	-327.56
	1936	19.36	4.99222E-001	2.49857E-004	0.00000E+000	5.00000E-001	-9.19776E-004	8	...........	-327.56
	1940	19.4	4.99212E-001	2.49858E-004	0.00000E+000	5.00000E-001	-9.06443E-004	8	...........	-327.56
	1944	19.44	4.99216E-001	2.49853E-004	0.00000E+000	5.00000E-001	-9.36443E-004	8	...........	-327.56
	1948	19.48	4.99226E-001	2.49858E-004	0.00000E+000	5.00000E-001	-9.33109E-004	8	...........	-327.56
	1952	19.52	4.99214E-001	2.49862E-004	0.00000E+000	5.00000E-001	-9.31443E-004	8	...........	-327.56
	1956	19.56	4.99216E-001	2.49863E-004	0.00000E+000	5.00000E-001	-9.28109E-004	8	...........	-327.56
	1960	19.6	4.99238E-001	2.49864E-004	0.00000E+000	5.00000E-001	-9.26443E-004	8	...........	-327.56
	1964	19.64	4.99222E-001	2.49855E-004	0.00000E+000	5.00000E-001	-9.28109E-004	8	...........	-327.56
	1968	19.68	4.99217E-001	2.49857E-004	0.00000E+000	5.00000E-001	-9.21443E-004	8	...........	-327.56
	1972	19.72	4.99231E-001	2.49859E-004	0.00000E+000	5.00000E-001	-9.33109E-004	8	...........	-327.56
	1976	19.76	4.99212E-001	2.49860E-004	0.00000E+000	5.00000E-001	-9.26443E-004	8	...........	-327.56
	1980	19.8	4.99216E-001	2.49862E-004	0.00000E+000	5.00000E-001	-9.13109E-004	8	...........	-327.56
	1984	19.84	4.99205E-001	2.49860E-004	0.00000E+000	5.00000E-001	-9.41443E-004	8	...........	-327.56
	1988	19.88	4.99212E-001	2.49856E-004	0.00000E+000	5.00000E-001	-9.19776E-004	8	...........	-327.56
	1992	19.92	4.99212E-001	2.49857E-004	0.00000E+000	5.00000E-001	-9.03109E-004	8	...........	-327.56
	1996	19.96	4.99233E-001	2.49859E-004	0.00000E+000	5.00000E-001	-9.33109E-004	8	...........	-327.56
	2000	20	4.99208E-001	2.49859E-004	0.00000E+000	5.00000E-001	-9.11443E-004	8	...........	-327.56